"","sID","nFingers","trial","block","acc","rt","group","prev_acc","mean_rt","sd_rt","vib_strength"
"1",1,3,200,2,1,1098,"0",1,1123.36,130.684059216621,1
"2",1,4,204,2,1,1122,"0",1,1167.375,232.9035651341,1
"3",1,3,205,2,1,1122,"0",1,1123.36,130.684059216621,1
"4",1,4,206,2,1,898,"0",1,1167.375,232.9035651341,1
"5",1,3,207,2,1,1031,"0",1,1123.36,130.684059216621,1
"6",1,1,208,2,1,1321,"0",1,1206.17647058824,124.992117398517,0.3
"7",1,5,211,2,1,1032,"0",1,1061.42857142857,112.46928762707,1
"8",1,1,212,2,1,1201,"0",1,1206.17647058824,124.992117398517,1
"9",1,5,213,2,1,1093,"0",1,1061.42857142857,112.46928762707,1
"10",1,3,214,2,1,1067,"0",1,1123.36,130.684059216621,0.3
"11",1,2,217,2,1,1296,"0",1,1206.5625,202.733640934766,0.3
"12",1,5,220,2,1,846,"0",1,1061.42857142857,112.46928762707,1
"13",1,3,221,2,1,1058,"0",1,1123.36,130.684059216621,0.3
"14",1,5,222,2,1,1160,"0",1,1061.42857142857,112.46928762707,1
"15",1,3,223,2,1,1301,"0",1,1123.36,130.684059216621,0.3
"16",1,5,224,2,1,1085,"0",1,1061.42857142857,112.46928762707,1
"17",1,2,225,2,1,1182,"0",1,1206.5625,202.733640934766,1
"18",1,3,226,2,1,1198,"0",1,1123.36,130.684059216621,1
"19",1,3,231,2,1,960,"0",1,1123.36,130.684059216621,1
"20",1,4,232,2,1,1196,"0",1,1167.375,232.9035651341,0.3
"21",1,4,233,2,1,1279,"0",1,1167.375,232.9035651341,0.3
"22",1,1,234,2,1,1145,"0",1,1206.17647058824,124.992117398517,1
"23",1,4,235,2,1,1295,"0",1,1167.375,232.9035651341,1
"24",1,2,236,2,1,1134,"0",1,1206.5625,202.733640934766,0.3
"25",1,4,237,2,1,1199,"0",1,1167.375,232.9035651341,1
"26",1,3,238,2,1,1176,"0",1,1123.36,130.684059216621,0.3
"27",1,2,239,2,1,1193,"0",1,1206.5625,202.733640934766,1
"28",1,3,240,2,1,1122,"0",1,1123.36,130.684059216621,1
"29",1,4,241,2,1,1111,"0",1,1167.375,232.9035651341,0.3
"30",1,4,246,2,1,998,"0",1,1167.375,232.9035651341,1
"31",1,2,249,2,1,1144,"0",1,1206.5625,202.733640934766,1
"32",1,1,250,2,1,1314,"0",1,1206.17647058824,124.992117398517,0.3
"33",1,1,251,2,1,1137,"0",1,1206.17647058824,124.992117398517,1
"34",1,4,260,2,1,1075,"0",1,1167.375,232.9035651341,1
"35",1,2,269,2,1,1229,"0",1,1206.5625,202.733640934766,0.3
"36",1,4,270,2,1,1074,"0",1,1167.375,232.9035651341,1
"37",1,3,280,2,1,1177,"0",1,1123.36,130.684059216621,0.3
"38",1,2,281,2,1,1083,"0",1,1206.5625,202.733640934766,0.3
"39",1,1,282,2,1,1161,"0",1,1206.17647058824,124.992117398517,0.3
"40",1,2,283,2,1,963,"0",1,1206.5625,202.733640934766,0.3
"41",1,5,284,2,1,1202,"0",1,1061.42857142857,112.46928762707,1
"42",1,5,285,2,1,1134,"0",1,1061.42857142857,112.46928762707,0.3
"43",1,3,286,2,1,1123,"0",1,1123.36,130.684059216621,0.3
"44",1,3,290,2,1,1302,"0",1,1123.36,130.684059216621,0.3
"45",1,4,299,2,1,1142,"0",1,1167.375,232.9035651341,1
"46",1,5,300,2,1,1077,"0",1,1061.42857142857,112.46928762707,0.3
"47",1,4,301,2,1,1240,"0",1,1167.375,232.9035651341,1
"48",1,4,304,2,1,1106,"0",1,1167.375,232.9035651341,0.3
"49",1,4,305,2,1,1192,"0",1,1167.375,232.9035651341,1
"50",1,4,306,2,1,1196,"0",1,1167.375,232.9035651341,1
"51",1,1,307,2,1,1180,"0",1,1206.17647058824,124.992117398517,1
"52",1,3,308,2,1,964,"0",1,1123.36,130.684059216621,0.3
"53",1,1,309,2,1,1156,"0",1,1206.17647058824,124.992117398517,0.3
"54",1,4,310,2,1,1042,"0",1,1167.375,232.9035651341,1
"55",1,5,311,2,1,1015,"0",1,1061.42857142857,112.46928762707,0.3
"56",1,3,312,2,1,1036,"0",1,1123.36,130.684059216621,0.3
"57",1,4,313,2,1,704,"0",1,1167.375,232.9035651341,0.3
"58",1,3,314,2,1,923,"0",1,1123.36,130.684059216621,0.3
"59",1,4,325,2,1,1376,"0",1,1167.375,232.9035651341,1
"60",1,1,329,2,1,1023,"0",1,1206.17647058824,124.992117398517,1
"61",1,2,330,2,1,1041,"0",1,1206.5625,202.733640934766,0.3
"62",1,1,331,2,1,1069,"0",1,1206.17647058824,124.992117398517,0.3
"63",1,1,332,2,1,1109,"0",1,1206.17647058824,124.992117398517,0.3
"64",1,1,339,2,1,1219,"0",1,1206.17647058824,124.992117398517,1
"65",1,5,340,2,1,1125,"0",1,1061.42857142857,112.46928762707,0.3
"66",1,3,345,2,1,1136,"0",1,1123.36,130.684059216621,1
"67",1,4,346,2,1,866,"0",1,1167.375,232.9035651341,1
"68",1,5,349,2,1,882,"0",1,1061.42857142857,112.46928762707,1
"69",1,1,350,2,1,1142,"0",1,1206.17647058824,124.992117398517,1
"70",1,2,357,2,1,1287,"0",1,1206.5625,202.733640934766,0.3
"71",1,1,358,2,1,1258,"0",1,1206.17647058824,124.992117398517,1
"72",1,1,359,2,1,1270,"0",1,1206.17647058824,124.992117398517,1
"73",1,5,360,2,1,1089,"0",1,1061.42857142857,112.46928762707,1
"74",1,5,365,2,1,1204,"0",1,1061.42857142857,112.46928762707,1
"75",1,4,368,2,1,1050,"0",1,1167.375,232.9035651341,1
"76",1,3,373,2,1,1062,"0",1,1123.36,130.684059216621,1
"77",1,2,374,2,1,1517,"0",1,1206.5625,202.733640934766,1
"78",1,3,375,2,1,1213,"0",1,1123.36,130.684059216621,1
"79",1,3,376,2,1,1180,"0",1,1123.36,130.684059216621,1
"80",1,3,377,2,1,1257,"0",1,1123.36,130.684059216621,1
"81",1,3,378,2,1,1160,"0",1,1123.36,130.684059216621,0.3
"82",1,2,382,2,1,993,"0",1,1206.5625,202.733640934766,0.3
"83",1,2,383,2,1,1172,"0",1,1206.5625,202.733640934766,1
"84",1,4,386,2,1,1536,"0",1,1167.375,232.9035651341,0.3
"85",1,2,390,2,1,1015,"0",1,1206.5625,202.733640934766,0.3
"86",1,1,391,2,1,1222,"0",1,1206.17647058824,124.992117398517,1
"87",1,3,392,2,1,1029,"0",1,1123.36,130.684059216621,0.3
"88",1,5,393,2,1,916,"0",1,1061.42857142857,112.46928762707,1
"89",1,3,394,2,1,907,"0",1,1123.36,130.684059216621,0.3
"90",1,2,395,2,1,1301,"0",1,1206.5625,202.733640934766,0.3
"91",1,4,396,2,1,1086,"0",1,1167.375,232.9035651341,1
"92",1,4,397,2,1,1337,"0",1,1167.375,232.9035651341,1
"93",2,5,200,2,1,1413,"0",1,1553.66111111111,338.530046458668,0.3
"94",2,3,201,2,1,1987,"0",1,1688.56983240223,365.546472286483,1
"95",2,4,202,2,1,1546,"0",1,1636.67397260274,342.429298881976,1
"96",2,1,203,2,1,1085,"0",1,1180.02266288952,212.260371699536,1
"97",2,1,204,2,1,1046,"0",1,1180.02266288952,212.260371699536,1
"98",2,5,205,2,1,1945,"0",1,1553.66111111111,338.530046458668,1
"99",2,3,206,2,1,1687,"0",1,1688.56983240223,365.546472286483,0.3
"100",2,5,207,2,1,1259,"0",1,1553.66111111111,338.530046458668,0.3
"101",2,1,208,2,1,1297,"0",1,1180.02266288952,212.260371699536,1
"102",2,3,209,2,1,2163,"0",1,1688.56983240223,365.546472286483,1
"103",2,4,210,2,1,1286,"0",1,1636.67397260274,342.429298881976,1
"104",2,2,211,2,1,1127,"0",1,1474.01714285714,340.947247375963,1
"105",2,1,212,2,1,1076,"0",1,1180.02266288952,212.260371699536,0.3
"106",2,4,213,2,1,1640,"0",1,1636.67397260274,342.429298881976,1
"107",2,2,215,2,1,1527,"0",1,1474.01714285714,340.947247375963,1
"108",2,2,216,2,1,1483,"0",1,1474.01714285714,340.947247375963,0.3
"109",2,1,217,2,1,1147,"0",1,1180.02266288952,212.260371699536,0.3
"110",2,3,218,2,1,1877,"0",1,1688.56983240223,365.546472286483,1
"111",2,2,219,2,1,1079,"0",1,1474.01714285714,340.947247375963,0.3
"112",2,1,220,2,1,1111,"0",1,1180.02266288952,212.260371699536,1
"113",2,5,221,2,1,1623,"0",1,1553.66111111111,338.530046458668,1
"114",2,1,222,2,1,1146,"0",1,1180.02266288952,212.260371699536,0.3
"115",2,4,225,2,1,1620,"0",1,1636.67397260274,342.429298881976,0.3
"116",2,4,226,2,1,1457,"0",1,1636.67397260274,342.429298881976,0.3
"117",2,2,227,2,1,1184,"0",1,1474.01714285714,340.947247375963,1
"118",2,5,229,2,1,1539,"0",1,1553.66111111111,338.530046458668,1
"119",2,3,230,2,1,2192,"0",1,1688.56983240223,365.546472286483,0.3
"120",2,4,231,2,1,963,"0",1,1636.67397260274,342.429298881976,1
"121",2,3,233,2,1,1378,"0",1,1688.56983240223,365.546472286483,1
"122",2,5,234,2,1,1236,"0",1,1553.66111111111,338.530046458668,0.3
"123",2,1,235,2,1,1092,"0",1,1180.02266288952,212.260371699536,1
"124",2,3,236,2,1,2054,"0",1,1688.56983240223,365.546472286483,0.3
"125",2,4,237,2,1,1864,"0",1,1636.67397260274,342.429298881976,1
"126",2,4,238,2,1,2164,"0",1,1636.67397260274,342.429298881976,0.3
"127",2,5,239,2,1,1257,"0",1,1553.66111111111,338.530046458668,0.3
"128",2,5,240,2,1,1362,"0",1,1553.66111111111,338.530046458668,1
"129",2,2,241,2,1,1801,"0",1,1474.01714285714,340.947247375963,1
"130",2,4,242,2,1,1335,"0",1,1636.67397260274,342.429298881976,0.3
"131",2,1,243,2,1,1092,"0",1,1180.02266288952,212.260371699536,1
"132",2,4,244,2,1,1475,"0",1,1636.67397260274,342.429298881976,1
"133",2,5,245,2,1,1457,"0",1,1553.66111111111,338.530046458668,1
"134",2,4,246,2,1,1346,"0",1,1636.67397260274,342.429298881976,1
"135",2,2,247,2,1,1121,"0",1,1474.01714285714,340.947247375963,0.3
"136",2,2,248,2,1,2049,"0",1,1474.01714285714,340.947247375963,1
"137",2,4,249,2,1,1546,"0",1,1636.67397260274,342.429298881976,0.3
"138",2,1,251,2,1,1200,"0",1,1180.02266288952,212.260371699536,0.3
"139",2,1,252,2,1,1065,"0",1,1180.02266288952,212.260371699536,0.3
"140",2,1,253,2,1,1206,"0",1,1180.02266288952,212.260371699536,0.3
"141",2,2,254,2,1,1234,"0",1,1474.01714285714,340.947247375963,0.3
"142",2,2,255,2,1,1283,"0",1,1474.01714285714,340.947247375963,0.3
"143",2,1,256,2,1,1182,"0",1,1180.02266288952,212.260371699536,1
"144",2,5,257,2,1,2025,"0",1,1553.66111111111,338.530046458668,0.3
"145",2,3,258,2,1,1157,"0",1,1688.56983240223,365.546472286483,1
"146",2,4,259,2,1,1306,"0",1,1636.67397260274,342.429298881976,0.3
"147",2,1,261,2,1,1115,"0",1,1180.02266288952,212.260371699536,0.3
"148",2,4,263,2,1,1272,"0",1,1636.67397260274,342.429298881976,0.3
"149",2,4,264,2,1,1237,"0",1,1636.67397260274,342.429298881976,0.3
"150",2,3,265,2,1,1725,"0",1,1688.56983240223,365.546472286483,0.3
"151",2,3,266,2,1,1189,"0",1,1688.56983240223,365.546472286483,0.3
"152",2,3,268,2,1,2227,"0",1,1688.56983240223,365.546472286483,1
"153",2,4,270,2,1,2021,"0",1,1636.67397260274,342.429298881976,1
"154",2,1,271,2,1,1374,"0",1,1180.02266288952,212.260371699536,1
"155",2,5,272,2,1,1663,"0",1,1553.66111111111,338.530046458668,0.3
"156",2,1,273,2,1,1111,"0",1,1180.02266288952,212.260371699536,1
"157",2,1,274,2,1,1108,"0",1,1180.02266288952,212.260371699536,1
"158",2,4,275,2,1,1329,"0",1,1636.67397260274,342.429298881976,0.3
"159",2,3,276,2,1,1241,"0",1,1688.56983240223,365.546472286483,1
"160",2,4,277,2,1,1695,"0",1,1636.67397260274,342.429298881976,1
"161",2,5,278,2,1,1236,"0",1,1553.66111111111,338.530046458668,0.3
"162",2,1,279,2,1,1016,"0",1,1180.02266288952,212.260371699536,0.3
"163",2,3,280,2,1,1868,"0",1,1688.56983240223,365.546472286483,1
"164",2,4,281,2,1,1640,"0",1,1636.67397260274,342.429298881976,0.3
"165",2,2,282,2,1,1162,"0",1,1474.01714285714,340.947247375963,0.3
"166",2,2,283,2,1,1227,"0",1,1474.01714285714,340.947247375963,1
"167",2,3,284,2,1,1800,"0",1,1688.56983240223,365.546472286483,1
"168",2,2,285,2,1,1266,"0",1,1474.01714285714,340.947247375963,1
"169",2,3,286,2,1,1274,"0",1,1688.56983240223,365.546472286483,1
"170",2,2,287,2,1,1746,"0",1,1474.01714285714,340.947247375963,0.3
"171",2,5,288,2,1,2103,"0",1,1553.66111111111,338.530046458668,0.3
"172",2,5,289,2,1,1840,"0",1,1553.66111111111,338.530046458668,1
"173",2,3,290,2,1,1342,"0",1,1688.56983240223,365.546472286483,1
"174",2,3,291,2,1,1290,"0",1,1688.56983240223,365.546472286483,0.3
"175",2,3,292,2,1,2054,"0",1,1688.56983240223,365.546472286483,0.3
"176",2,5,293,2,1,1473,"0",1,1553.66111111111,338.530046458668,1
"177",2,4,294,2,1,1167,"0",1,1636.67397260274,342.429298881976,1
"178",2,1,295,2,1,1065,"0",1,1180.02266288952,212.260371699536,0.3
"179",2,4,296,2,1,1974,"0",1,1636.67397260274,342.429298881976,1
"180",2,2,297,2,1,1384,"0",1,1474.01714285714,340.947247375963,1
"181",2,4,298,2,1,1475,"0",1,1636.67397260274,342.429298881976,0.3
"182",2,2,299,2,1,1439,"0",1,1474.01714285714,340.947247375963,0.3
"183",2,5,300,2,1,1626,"0",1,1553.66111111111,338.530046458668,1
"184",2,1,301,2,1,1164,"0",1,1180.02266288952,212.260371699536,1
"185",2,4,303,2,1,1984,"0",1,1636.67397260274,342.429298881976,0.3
"186",2,3,304,2,1,1290,"0",1,1688.56983240223,365.546472286483,1
"187",2,2,305,2,1,1483,"0",1,1474.01714285714,340.947247375963,0.3
"188",2,4,306,2,1,1984,"0",1,1636.67397260274,342.429298881976,1
"189",2,2,307,2,1,1408,"0",1,1474.01714285714,340.947247375963,0.3
"190",2,3,308,2,1,2054,"0",1,1688.56983240223,365.546472286483,0.3
"191",2,5,309,2,1,1616,"0",1,1553.66111111111,338.530046458668,0.3
"192",2,4,310,2,1,1802,"0",1,1636.67397260274,342.429298881976,0.3
"193",2,5,312,2,1,1362,"0",1,1553.66111111111,338.530046458668,0.3
"194",2,5,313,2,1,1587,"0",1,1553.66111111111,338.530046458668,0.3
"195",2,1,314,2,1,1527,"0",1,1180.02266288952,212.260371699536,0.3
"196",2,5,315,2,1,1722,"0",1,1553.66111111111,338.530046458668,1
"197",2,2,316,2,1,1184,"0",1,1474.01714285714,340.947247375963,1
"198",2,3,317,2,1,2163,"0",1,1688.56983240223,365.546472286483,0.3
"199",2,4,320,2,1,1344,"0",1,1636.67397260274,342.429298881976,1
"200",2,5,321,2,1,1199,"0",1,1553.66111111111,338.530046458668,1
"201",2,3,322,2,1,1726,"0",1,1688.56983240223,365.546472286483,0.3
"202",2,5,323,2,1,1285,"0",1,1553.66111111111,338.530046458668,0.3
"203",2,1,324,2,1,1165,"0",1,1180.02266288952,212.260371699536,0.3
"204",2,3,325,2,1,1457,"0",1,1688.56983240223,365.546472286483,1
"205",2,4,326,2,1,1864,"0",1,1636.67397260274,342.429298881976,1
"206",2,2,327,2,1,1224,"0",1,1474.01714285714,340.947247375963,1
"207",2,2,328,2,1,1180,"0",1,1474.01714285714,340.947247375963,1
"208",2,5,330,2,1,1428,"0",1,1553.66111111111,338.530046458668,0.3
"209",2,4,331,2,1,1360,"0",1,1636.67397260274,342.429298881976,1
"210",2,2,332,2,1,1325,"0",1,1474.01714285714,340.947247375963,0.3
"211",2,4,333,2,1,1329,"0",1,1636.67397260274,342.429298881976,0.3
"212",2,3,334,2,1,1763,"0",1,1688.56983240223,365.546472286483,1
"213",2,1,335,2,1,1197,"0",1,1180.02266288952,212.260371699536,0.3
"214",2,2,336,2,1,1688,"0",1,1474.01714285714,340.947247375963,0.3
"215",2,3,337,2,1,1523,"0",1,1688.56983240223,365.546472286483,1
"216",2,5,338,2,1,1385,"0",1,1553.66111111111,338.530046458668,1
"217",2,1,339,2,1,1085,"0",1,1180.02266288952,212.260371699536,1
"218",2,1,340,2,1,963,"0",1,1180.02266288952,212.260371699536,0.3
"219",2,2,341,2,1,1764,"0",1,1474.01714285714,340.947247375963,1
"220",2,1,342,2,1,1109,"0",1,1180.02266288952,212.260371699536,1
"221",2,2,343,2,1,2049,"0",1,1474.01714285714,340.947247375963,1
"222",2,5,344,2,1,1199,"0",1,1553.66111111111,338.530046458668,1
"223",2,2,345,2,1,1344,"0",1,1474.01714285714,340.947247375963,1
"224",2,1,346,2,1,1123,"0",1,1180.02266288952,212.260371699536,0.3
"225",2,5,347,2,1,1615,"0",1,1553.66111111111,338.530046458668,1
"226",2,3,348,2,1,1310,"0",1,1688.56983240223,365.546472286483,0.3
"227",2,5,349,2,1,1422,"0",1,1553.66111111111,338.530046458668,1
"228",2,5,351,2,1,1539,"0",1,1553.66111111111,338.530046458668,0.3
"229",2,1,353,2,1,1014,"0",1,1180.02266288952,212.260371699536,1
"230",2,5,354,2,1,1646,"0",1,1553.66111111111,338.530046458668,1
"231",2,4,355,2,1,1204,"0",1,1636.67397260274,342.429298881976,0.3
"232",2,1,356,2,1,1297,"0",1,1180.02266288952,212.260371699536,1
"233",2,4,357,2,1,2164,"0",1,1636.67397260274,342.429298881976,0.3
"234",2,3,358,2,1,1402,"0",1,1688.56983240223,365.546472286483,1
"235",2,3,359,2,1,1927,"0",1,1688.56983240223,365.546472286483,1
"236",2,4,360,2,1,2105,"0",1,1636.67397260274,342.429298881976,1
"237",2,3,361,2,1,1308,"0",1,1688.56983240223,365.546472286483,0.3
"238",2,1,362,2,1,1164,"0",1,1180.02266288952,212.260371699536,1
"239",2,2,363,2,1,1512,"0",1,1474.01714285714,340.947247375963,1
"240",2,5,364,2,1,1139,"0",1,1553.66111111111,338.530046458668,1
"241",2,5,365,2,1,1377,"0",1,1553.66111111111,338.530046458668,0.3
"242",2,5,366,2,1,1617,"0",1,1553.66111111111,338.530046458668,0.3
"243",2,1,367,2,1,1139,"0",1,1180.02266288952,212.260371699536,0.3
"244",2,1,368,2,1,1225,"0",1,1180.02266288952,212.260371699536,1
"245",2,2,369,2,1,1121,"0",1,1474.01714285714,340.947247375963,1
"246",2,3,370,2,1,1308,"0",1,1688.56983240223,365.546472286483,1
"247",2,2,371,2,1,1451,"0",1,1474.01714285714,340.947247375963,0.3
"248",2,1,372,2,1,1225,"0",1,1180.02266288952,212.260371699536,0.3
"249",2,1,373,2,1,1108,"0",1,1180.02266288952,212.260371699536,1
"250",2,1,374,2,1,1384,"0",1,1180.02266288952,212.260371699536,0.3
"251",2,1,375,2,1,963,"0",1,1180.02266288952,212.260371699536,0.3
"252",2,4,376,2,1,963,"0",1,1636.67397260274,342.429298881976,0.3
"253",2,1,377,2,1,1178,"0",1,1180.02266288952,212.260371699536,1
"254",2,4,378,2,1,1414,"0",1,1636.67397260274,342.429298881976,0.3
"255",2,4,379,2,1,1638,"0",1,1636.67397260274,342.429298881976,0.3
"256",2,3,380,2,1,1245,"0",1,1688.56983240223,365.546472286483,1
"257",2,2,381,2,1,1465,"0",1,1474.01714285714,340.947247375963,1
"258",2,3,382,2,1,1525,"0",1,1688.56983240223,365.546472286483,1
"259",2,5,383,2,1,1829,"0",1,1553.66111111111,338.530046458668,1
"260",2,1,384,2,1,1109,"0",1,1180.02266288952,212.260371699536,1
"261",2,3,385,2,1,1514,"0",1,1688.56983240223,365.546472286483,1
"262",2,3,386,2,1,1495,"0",1,1688.56983240223,365.546472286483,0.3
"263",2,5,387,2,1,1285,"0",1,1553.66111111111,338.530046458668,1
"264",2,4,388,2,1,1286,"0",1,1636.67397260274,342.429298881976,1
"265",2,5,389,2,1,1682,"0",1,1553.66111111111,338.530046458668,1
"266",2,3,390,2,1,1635,"0",1,1688.56983240223,365.546472286483,1
"267",2,5,391,2,1,1257,"0",1,1553.66111111111,338.530046458668,1
"268",2,2,392,2,1,1180,"0",1,1474.01714285714,340.947247375963,0.3
"269",2,1,393,2,1,1156,"0",1,1180.02266288952,212.260371699536,1
"270",2,3,395,2,1,1806,"0",1,1688.56983240223,365.546472286483,0.3
"271",2,5,396,2,1,1146,"0",1,1553.66111111111,338.530046458668,1
"272",2,5,397,2,1,1829,"0",1,1553.66111111111,338.530046458668,0.3
"273",2,2,398,2,1,1355,"0",1,1474.01714285714,340.947247375963,1
"274",2,1,399,2,1,1297,"0",1,1180.02266288952,212.260371699536,1
"275",2,5,400,3,1,1829,"0",1,1553.66111111111,338.530046458668,0.3
"276",2,4,401,3,1,1640,"0",1,1636.67397260274,342.429298881976,0.3
"277",2,2,402,3,1,1482,"0",1,1474.01714285714,340.947247375963,1
"278",2,5,403,3,1,2096,"0",1,1553.66111111111,338.530046458668,0.3
"279",2,4,404,3,1,1444,"0",1,1636.67397260274,342.429298881976,0.3
"280",2,4,405,3,1,1625,"0",1,1636.67397260274,342.429298881976,0.3
"281",2,1,406,3,1,1016,"0",1,1180.02266288952,212.260371699536,0.3
"282",2,4,407,3,1,1185,"0",1,1636.67397260274,342.429298881976,0.3
"283",2,1,408,3,1,1105,"0",1,1180.02266288952,212.260371699536,0.3
"284",2,4,409,3,1,1503,"0",1,1636.67397260274,342.429298881976,1
"285",2,3,410,3,1,1245,"0",1,1688.56983240223,365.546472286483,1
"286",2,3,411,3,1,1763,"0",1,1688.56983240223,365.546472286483,0.3
"287",2,2,412,3,1,1605,"0",1,1474.01714285714,340.947247375963,0.3
"288",2,3,413,3,1,1464,"0",1,1688.56983240223,365.546472286483,0.3
"289",2,3,414,3,1,1716,"0",1,1688.56983240223,365.546472286483,0.3
"290",2,2,415,3,1,1483,"0",1,1474.01714285714,340.947247375963,0.3
"291",2,3,416,3,1,1987,"0",1,1688.56983240223,365.546472286483,0.3
"292",2,1,418,3,1,1043,"0",1,1180.02266288952,212.260371699536,0.3
"293",2,1,419,3,1,1163,"0",1,1180.02266288952,212.260371699536,1
"294",2,1,420,3,1,1447,"0",1,1180.02266288952,212.260371699536,1
"295",2,1,421,3,1,1126,"0",1,1180.02266288952,212.260371699536,0.3
"296",2,4,422,3,1,1615,"0",1,1636.67397260274,342.429298881976,1
"297",2,1,423,3,1,875,"0",1,1180.02266288952,212.260371699536,1
"298",2,4,424,3,1,1850,"0",1,1636.67397260274,342.429298881976,0.3
"299",2,1,425,3,1,1214,"0",1,1180.02266288952,212.260371699536,0.3
"300",2,5,426,3,1,1829,"0",1,1553.66111111111,338.530046458668,0.3
"301",2,1,427,3,1,1118,"0",1,1180.02266288952,212.260371699536,1
"302",2,4,429,3,1,1185,"0",1,1636.67397260274,342.429298881976,0.3
"303",2,3,430,3,1,1457,"0",1,1688.56983240223,365.546472286483,1
"304",2,1,431,3,1,1057,"0",1,1180.02266288952,212.260371699536,0.3
"305",2,4,432,3,1,1620,"0",1,1636.67397260274,342.429298881976,0.3
"306",2,3,433,3,1,1708,"0",1,1688.56983240223,365.546472286483,0.3
"307",2,1,434,3,1,1106,"0",1,1180.02266288952,212.260371699536,0.3
"308",2,2,435,3,1,1517,"0",1,1474.01714285714,340.947247375963,1
"309",2,1,436,3,1,1100,"0",1,1180.02266288952,212.260371699536,0.3
"310",2,5,437,3,1,1280,"0",1,1553.66111111111,338.530046458668,1
"311",2,2,439,3,1,1492,"0",1,1474.01714285714,340.947247375963,0.3
"312",2,1,440,3,1,1026,"0",1,1180.02266288952,212.260371699536,0.3
"313",2,5,442,3,1,1624,"0",1,1553.66111111111,338.530046458668,0.3
"314",2,3,443,3,1,1490,"0",1,1688.56983240223,365.546472286483,1
"315",2,5,444,3,1,1617,"0",1,1553.66111111111,338.530046458668,0.3
"316",2,4,445,3,1,1566,"0",1,1636.67397260274,342.429298881976,0.3
"317",2,2,446,3,1,1344,"0",1,1474.01714285714,340.947247375963,1
"318",2,1,447,3,1,1106,"0",1,1180.02266288952,212.260371699536,1
"319",2,5,448,3,1,1646,"0",1,1553.66111111111,338.530046458668,0.3
"320",2,5,449,3,1,1127,"0",1,1553.66111111111,338.530046458668,0.3
"321",2,4,450,3,1,1850,"0",1,1636.67397260274,342.429298881976,1
"322",2,1,451,3,1,1164,"0",1,1180.02266288952,212.260371699536,0.3
"323",2,3,452,3,1,2168,"0",1,1688.56983240223,365.546472286483,0.3
"324",2,2,453,3,1,1571,"0",1,1474.01714285714,340.947247375963,0.3
"325",2,3,454,3,1,1565,"0",1,1688.56983240223,365.546472286483,1
"326",2,5,455,3,1,1457,"0",1,1553.66111111111,338.530046458668,0.3
"327",2,5,456,3,1,1413,"0",1,1553.66111111111,338.530046458668,0.3
"328",2,4,457,3,1,1584,"0",1,1636.67397260274,342.429298881976,1
"329",2,1,458,3,1,1065,"0",1,1180.02266288952,212.260371699536,0.3
"330",2,1,459,3,1,1367,"0",1,1180.02266288952,212.260371699536,1
"331",2,5,460,3,1,1646,"0",1,1553.66111111111,338.530046458668,1
"332",2,5,461,3,1,1840,"0",1,1553.66111111111,338.530046458668,1
"333",2,5,462,3,1,1345,"0",1,1553.66111111111,338.530046458668,1
"334",2,3,463,3,1,1318,"0",1,1688.56983240223,365.546472286483,0.3
"335",2,5,464,3,1,1176,"0",1,1553.66111111111,338.530046458668,0.3
"336",2,5,466,3,1,1186,"0",1,1553.66111111111,338.530046458668,0.3
"337",2,3,467,3,1,1566,"0",1,1688.56983240223,365.546472286483,0.3
"338",2,2,469,3,1,1227,"0",1,1474.01714285714,340.947247375963,1
"339",2,5,470,3,1,1641,"0",1,1553.66111111111,338.530046458668,1
"340",2,1,471,3,1,1126,"0",1,1180.02266288952,212.260371699536,0.3
"341",2,5,472,3,1,1422,"0",1,1553.66111111111,338.530046458668,1
"342",2,3,474,3,1,1927,"0",1,1688.56983240223,365.546472286483,0.3
"343",2,4,475,3,1,1850,"0",1,1636.67397260274,342.429298881976,0.3
"344",2,5,476,3,1,1454,"0",1,1553.66111111111,338.530046458668,1
"345",2,2,477,3,1,2096,"0",1,1474.01714285714,340.947247375963,1
"346",2,5,478,3,1,1313,"0",1,1553.66111111111,338.530046458668,0.3
"347",2,5,479,3,1,2025,"0",1,1553.66111111111,338.530046458668,0.3
"348",2,3,480,3,1,1181,"0",1,1688.56983240223,365.546472286483,1
"349",2,4,481,3,1,1546,"0",1,1636.67397260274,342.429298881976,0.3
"350",2,5,482,3,1,1615,"0",1,1553.66111111111,338.530046458668,1
"351",2,1,483,3,1,955,"0",1,1180.02266288952,212.260371699536,0.3
"352",2,2,484,3,1,1180,"0",1,1474.01714285714,340.947247375963,0.3
"353",2,5,485,3,1,1726,"0",1,1553.66111111111,338.530046458668,0.3
"354",2,2,488,3,1,1439,"0",1,1474.01714285714,340.947247375963,0.3
"355",2,1,489,3,1,1126,"0",1,1180.02266288952,212.260371699536,1
"356",2,1,490,3,1,1065,"0",1,1180.02266288952,212.260371699536,1
"357",2,5,491,3,1,1384,"0",1,1553.66111111111,338.530046458668,0.3
"358",2,3,492,3,1,1925,"0",1,1688.56983240223,365.546472286483,1
"359",2,1,493,3,1,1194,"0",1,1180.02266288952,212.260371699536,0.3
"360",2,3,494,3,1,2042,"0",1,1688.56983240223,365.546472286483,0.3
"361",2,3,495,3,1,1633,"0",1,1688.56983240223,365.546472286483,1
"362",2,2,496,3,1,1482,"0",1,1474.01714285714,340.947247375963,0.3
"363",2,1,499,3,1,1197,"0",1,1180.02266288952,212.260371699536,0.3
"364",2,5,500,3,1,1236,"0",1,1553.66111111111,338.530046458668,0.3
"365",2,3,501,3,1,1925,"0",1,1688.56983240223,365.546472286483,0.3
"366",2,4,502,3,1,1475,"0",1,1636.67397260274,342.429298881976,0.3
"367",2,3,503,3,1,1403,"0",1,1688.56983240223,365.546472286483,1
"368",2,1,504,3,1,1194,"0",1,1180.02266288952,212.260371699536,0.3
"369",2,1,505,3,1,1200,"0",1,1180.02266288952,212.260371699536,1
"370",2,1,506,3,1,1133,"0",1,1180.02266288952,212.260371699536,0.3
"371",2,5,507,3,1,1613,"0",1,1553.66111111111,338.530046458668,1
"372",2,5,508,3,1,1662,"0",1,1553.66111111111,338.530046458668,1
"373",2,4,509,3,1,1546,"0",1,1636.67397260274,342.429298881976,1
"374",2,4,510,3,1,1352,"0",1,1636.67397260274,342.429298881976,0.3
"375",2,1,511,3,1,1178,"0",1,1180.02266288952,212.260371699536,1
"376",2,3,512,3,1,1189,"0",1,1688.56983240223,365.546472286483,1
"377",2,1,513,3,1,818,"0",1,1180.02266288952,212.260371699536,1
"378",2,4,514,3,1,1802,"0",1,1636.67397260274,342.429298881976,1
"379",2,3,515,3,1,1556,"0",1,1688.56983240223,365.546472286483,1
"380",2,2,516,3,1,1384,"0",1,1474.01714285714,340.947247375963,1
"381",2,4,517,3,1,1506,"0",1,1636.67397260274,342.429298881976,1
"382",2,3,518,3,1,1726,"0",1,1688.56983240223,365.546472286483,0.3
"383",2,3,519,3,1,1725,"0",1,1688.56983240223,365.546472286483,1
"384",2,5,520,3,1,1434,"0",1,1553.66111111111,338.530046458668,0.3
"385",2,1,521,3,1,1016,"0",1,1180.02266288952,212.260371699536,1
"386",2,4,522,3,1,1344,"0",1,1636.67397260274,342.429298881976,1
"387",2,2,523,3,1,1482,"0",1,1474.01714285714,340.947247375963,1
"388",2,1,524,3,1,1103,"0",1,1180.02266288952,212.260371699536,1
"389",2,1,525,3,1,1123,"0",1,1180.02266288952,212.260371699536,0.3
"390",2,5,526,3,1,1587,"0",1,1553.66111111111,338.530046458668,1
"391",2,5,527,3,1,1623,"0",1,1553.66111111111,338.530046458668,1
"392",2,3,528,3,1,2054,"0",1,1688.56983240223,365.546472286483,0.3
"393",2,3,530,3,1,1437,"0",1,1688.56983240223,365.546472286483,0.3
"394",2,1,531,3,1,1146,"0",1,1180.02266288952,212.260371699536,0.3
"395",2,4,532,3,1,1204,"0",1,1636.67397260274,342.429298881976,0.3
"396",2,1,533,3,1,1214,"0",1,1180.02266288952,212.260371699536,1
"397",2,1,534,3,1,1090,"0",1,1180.02266288952,212.260371699536,1
"398",2,2,535,3,1,1325,"0",1,1474.01714285714,340.947247375963,0.3
"399",2,4,536,3,1,1873,"0",1,1636.67397260274,342.429298881976,1
"400",2,5,537,3,1,1623,"0",1,1553.66111111111,338.530046458668,0.3
"401",2,5,538,3,1,1307,"0",1,1553.66111111111,338.530046458668,1
"402",2,5,539,3,1,1526,"0",1,1553.66111111111,338.530046458668,1
"403",2,3,540,3,1,1764,"0",1,1688.56983240223,365.546472286483,1
"404",2,5,541,3,1,1524,"0",1,1553.66111111111,338.530046458668,1
"405",2,4,542,3,1,1620,"0",1,1636.67397260274,342.429298881976,0.3
"406",2,3,543,3,1,1290,"0",1,1688.56983240223,365.546472286483,0.3
"407",2,5,544,3,1,2103,"0",1,1553.66111111111,338.530046458668,0.3
"408",2,3,545,3,1,1675,"0",1,1688.56983240223,365.546472286483,1
"409",2,4,546,3,1,1667,"0",1,1636.67397260274,342.429298881976,1
"410",2,3,547,3,1,1402,"0",1,1688.56983240223,365.546472286483,0.3
"411",2,4,548,3,1,1638,"0",1,1636.67397260274,342.429298881976,0.3
"412",2,1,549,3,1,1111,"0",1,1180.02266288952,212.260371699536,0.3
"413",2,5,550,3,1,1539,"0",1,1553.66111111111,338.530046458668,0.3
"414",2,4,551,3,1,1873,"0",1,1636.67397260274,342.429298881976,1
"415",2,3,552,3,1,1157,"0",1,1688.56983240223,365.546472286483,1
"416",2,1,555,3,1,1164,"0",1,1180.02266288952,212.260371699536,1
"417",2,5,557,3,1,2127,"0",1,1553.66111111111,338.530046458668,0.3
"418",2,1,558,3,1,1374,"0",1,1180.02266288952,212.260371699536,1
"419",2,3,559,3,1,1347,"0",1,1688.56983240223,365.546472286483,0.3
"420",2,5,560,3,1,1146,"0",1,1553.66111111111,338.530046458668,0.3
"421",2,3,561,3,1,1566,"0",1,1688.56983240223,365.546472286483,1
"422",2,5,562,3,1,1163,"0",1,1553.66111111111,338.530046458668,0.3
"423",2,2,563,3,1,1492,"0",1,1474.01714285714,340.947247375963,0.3
"424",2,5,564,3,1,1979,"0",1,1553.66111111111,338.530046458668,1
"425",2,1,565,3,1,1147,"0",1,1180.02266288952,212.260371699536,1
"426",2,1,566,3,1,1124,"0",1,1180.02266288952,212.260371699536,1
"427",2,3,567,3,1,1318,"0",1,1688.56983240223,365.546472286483,1
"428",2,4,568,3,1,1416,"0",1,1636.67397260274,342.429298881976,1
"429",2,5,569,3,1,1448,"0",1,1553.66111111111,338.530046458668,1
"430",2,1,570,3,1,1225,"0",1,1180.02266288952,212.260371699536,0.3
"431",2,2,571,3,1,1571,"0",1,1474.01714285714,340.947247375963,1
"432",2,2,572,3,1,1193,"0",1,1474.01714285714,340.947247375963,0.3
"433",2,1,573,3,1,1048,"0",1,1180.02266288952,212.260371699536,1
"434",2,2,574,3,1,1178,"0",1,1474.01714285714,340.947247375963,1
"435",2,2,575,3,1,1605,"0",1,1474.01714285714,340.947247375963,1
"436",2,5,576,3,1,1304,"0",1,1553.66111111111,338.530046458668,0.3
"437",2,3,577,3,1,1403,"0",1,1688.56983240223,365.546472286483,0.3
"438",2,3,578,3,1,1189,"0",1,1688.56983240223,365.546472286483,0.3
"439",2,4,579,3,1,1802,"0",1,1636.67397260274,342.429298881976,0.3
"440",2,2,580,3,1,1190,"0",1,1474.01714285714,340.947247375963,0.3
"441",2,4,581,3,1,1963,"0",1,1636.67397260274,342.429298881976,0.3
"442",2,5,582,3,1,1613,"0",1,1553.66111111111,338.530046458668,0.3
"443",2,5,583,3,1,1524,"0",1,1553.66111111111,338.530046458668,0.3
"444",2,2,584,3,1,1344,"0",1,1474.01714285714,340.947247375963,1
"445",2,4,585,3,1,1584,"0",1,1636.67397260274,342.429298881976,1
"446",2,5,586,3,1,1236,"0",1,1553.66111111111,338.530046458668,0.3
"447",2,1,587,3,1,1108,"0",1,1180.02266288952,212.260371699536,0.3
"448",2,5,588,3,1,1641,"0",1,1553.66111111111,338.530046458668,1
"449",2,1,589,3,1,1175,"0",1,1180.02266288952,212.260371699536,1
"450",2,3,590,3,1,2168,"0",1,1688.56983240223,365.546472286483,1
"451",2,4,591,3,1,1448,"0",1,1636.67397260274,342.429298881976,1
"452",2,2,592,3,1,1350,"0",1,1474.01714285714,340.947247375963,0.3
"453",2,2,593,3,1,1451,"0",1,1474.01714285714,340.947247375963,0.3
"454",2,5,594,3,1,1623,"0",1,1553.66111111111,338.530046458668,0.3
"455",2,4,595,3,1,1352,"0",1,1636.67397260274,342.429298881976,1
"456",2,5,596,3,1,1641,"0",1,1553.66111111111,338.530046458668,1
"457",2,3,597,3,1,1186,"0",1,1688.56983240223,365.546472286483,0.3
"458",2,3,598,3,1,1873,"0",1,1688.56983240223,365.546472286483,1
"459",2,5,599,3,1,2127,"0",1,1553.66111111111,338.530046458668,1
"460",2,3,600,4,1,1556,"0",1,1688.56983240223,365.546472286483,1
"461",2,4,601,4,1,1694,"0",1,1636.67397260274,342.429298881976,0.3
"462",2,3,602,4,1,1274,"0",1,1688.56983240223,365.546472286483,1
"463",2,5,603,4,1,1726,"0",1,1553.66111111111,338.530046458668,0.3
"464",2,2,604,4,1,1767,"0",1,1474.01714285714,340.947247375963,1
"465",2,5,605,4,1,1726,"0",1,1553.66111111111,338.530046458668,0.3
"466",2,1,606,4,1,1175,"0",1,1180.02266288952,212.260371699536,1
"467",2,2,607,4,1,1517,"0",1,1474.01714285714,340.947247375963,1
"468",2,5,608,4,1,1377,"0",1,1553.66111111111,338.530046458668,1
"469",2,1,609,4,1,877,"0",1,1180.02266288952,212.260371699536,1
"470",2,5,611,4,1,1662,"0",1,1553.66111111111,338.530046458668,0.3
"471",2,5,612,4,1,1533,"0",1,1553.66111111111,338.530046458668,1
"472",2,3,613,4,1,1342,"0",1,1688.56983240223,365.546472286483,0.3
"473",2,5,614,4,1,1617,"0",1,1553.66111111111,338.530046458668,0.3
"474",2,3,615,4,1,1924,"0",1,1688.56983240223,365.546472286483,1
"475",2,1,616,4,1,1102,"0",1,1180.02266288952,212.260371699536,0.3
"476",2,5,617,4,1,1345,"0",1,1553.66111111111,338.530046458668,1
"477",2,4,618,4,1,1584,"0",1,1636.67397260274,342.429298881976,0.3
"478",2,5,619,4,1,1626,"0",1,1553.66111111111,338.530046458668,0.3
"479",2,5,620,4,1,1186,"0",1,1553.66111111111,338.530046458668,1
"480",2,2,621,4,1,1395,"0",1,1474.01714285714,340.947247375963,0.3
"481",2,2,622,4,1,1045,"0",1,1474.01714285714,340.947247375963,1
"482",2,5,624,4,1,1641,"0",1,1553.66111111111,338.530046458668,1
"483",2,1,625,4,1,1046,"0",1,1180.02266288952,212.260371699536,1
"484",2,4,626,4,1,1615,"0",1,1636.67397260274,342.429298881976,1
"485",2,1,627,4,1,1243,"0",1,1180.02266288952,212.260371699536,0.3
"486",2,4,628,4,1,1680,"0",1,1636.67397260274,342.429298881976,0.3
"487",2,4,629,4,1,1272,"0",1,1636.67397260274,342.429298881976,0.3
"488",2,3,630,4,1,1714,"0",1,1688.56983240223,365.546472286483,1
"489",2,4,631,4,1,1503,"0",1,1636.67397260274,342.429298881976,0.3
"490",2,3,632,4,1,1181,"0",1,1688.56983240223,365.546472286483,0.3
"491",2,5,633,4,1,1979,"0",1,1553.66111111111,338.530046458668,0.3
"492",2,3,634,4,1,1868,"0",1,1688.56983240223,365.546472286483,1
"493",2,4,635,4,1,1475,"0",1,1636.67397260274,342.429298881976,1
"494",2,1,637,4,1,1165,"0",1,1180.02266288952,212.260371699536,0.3
"495",2,4,638,4,1,1494,"0",1,1636.67397260274,342.429298881976,1
"496",2,4,639,4,1,1864,"0",1,1636.67397260274,342.429298881976,0.3
"497",2,1,640,4,1,1175,"0",1,1180.02266288952,212.260371699536,0.3
"498",2,1,641,4,1,1194,"0",1,1180.02266288952,212.260371699536,1
"499",2,2,642,4,1,1344,"0",1,1474.01714285714,340.947247375963,0.3
"500",2,5,643,4,1,1684,"0",1,1553.66111111111,338.530046458668,0.3
"501",2,2,644,4,1,1318,"0",1,1474.01714285714,340.947247375963,0.3
"502",2,5,645,4,1,1979,"0",1,1553.66111111111,338.530046458668,0.3
"503",2,1,646,4,1,1148,"0",1,1180.02266288952,212.260371699536,1
"504",2,4,647,4,1,1315,"0",1,1636.67397260274,342.429298881976,0.3
"505",2,4,648,4,1,1256,"0",1,1636.67397260274,342.429298881976,0.3
"506",2,3,649,4,1,1531,"0",1,1688.56983240223,365.546472286483,0.3
"507",2,1,650,4,1,1090,"0",1,1180.02266288952,212.260371699536,0.3
"508",2,3,651,4,1,1241,"0",1,1688.56983240223,365.546472286483,1
"509",2,3,652,4,1,1868,"0",1,1688.56983240223,365.546472286483,1
"510",2,2,653,4,1,1527,"0",1,1474.01714285714,340.947247375963,1
"511",2,4,654,4,1,1429,"0",1,1636.67397260274,342.429298881976,0.3
"512",2,1,655,4,1,818,"0",1,1180.02266288952,212.260371699536,0.3
"513",2,3,656,4,1,1353,"0",1,1688.56983240223,365.546472286483,1
"514",2,5,658,4,1,1624,"0",1,1553.66111111111,338.530046458668,0.3
"515",2,1,659,4,1,1026,"0",1,1180.02266288952,212.260371699536,1
"516",2,3,660,4,1,1189,"0",1,1688.56983240223,365.546472286483,1
"517",2,1,661,4,1,1596,"0",1,1180.02266288952,212.260371699536,1
"518",2,3,662,4,1,1406,"0",1,1688.56983240223,365.546472286483,1
"519",2,5,663,4,1,1945,"0",1,1553.66111111111,338.530046458668,0.3
"520",2,3,664,4,1,1627,"0",1,1688.56983240223,365.546472286483,0.3
"521",2,1,665,4,1,1065,"0",1,1180.02266288952,212.260371699536,0.3
"522",2,3,666,4,1,1764,"0",1,1688.56983240223,365.546472286483,0.3
"523",2,2,667,4,1,1285,"0",1,1474.01714285714,340.947247375963,0.3
"524",2,3,668,4,1,1716,"0",1,1688.56983240223,365.546472286483,0.3
"525",2,3,669,4,1,1457,"0",1,1688.56983240223,365.546472286483,1
"526",2,2,670,4,1,1498,"0",1,1474.01714285714,340.947247375963,1
"527",2,2,671,4,1,1801,"0",1,1474.01714285714,340.947247375963,1
"528",2,5,672,4,1,1285,"0",1,1553.66111111111,338.530046458668,0.3
"529",2,3,673,4,1,1213,"0",1,1688.56983240223,365.546472286483,0.3
"530",2,2,674,4,1,1527,"0",1,1474.01714285714,340.947247375963,0.3
"531",2,1,675,4,1,1104,"0",1,1180.02266288952,212.260371699536,0.3
"532",2,3,676,4,1,1363,"0",1,1688.56983240223,365.546472286483,0.3
"533",2,3,678,4,1,1353,"0",1,1688.56983240223,365.546472286483,1
"534",2,2,679,4,1,1355,"0",1,1474.01714285714,340.947247375963,0.3
"535",2,4,680,4,1,2105,"0",1,1636.67397260274,342.429298881976,0.3
"536",2,5,681,4,1,1607,"0",1,1553.66111111111,338.530046458668,0.3
"537",2,2,682,4,1,1227,"0",1,1474.01714285714,340.947247375963,0.3
"538",2,2,683,4,1,1217,"0",1,1474.01714285714,340.947247375963,1
"539",2,2,684,4,1,1431,"0",1,1474.01714285714,340.947247375963,0.3
"540",2,1,685,4,1,875,"0",1,1180.02266288952,212.260371699536,0.3
"541",2,5,686,4,1,1465,"0",1,1553.66111111111,338.530046458668,1
"542",2,4,687,4,1,1586,"0",1,1636.67397260274,342.429298881976,1
"543",2,2,688,4,1,1287,"0",1,1474.01714285714,340.947247375963,0.3
"544",2,1,689,4,1,1165,"0",1,1180.02266288952,212.260371699536,1
"545",2,3,690,4,1,1763,"0",1,1688.56983240223,365.546472286483,0.3
"546",2,1,691,4,1,1100,"0",1,1180.02266288952,212.260371699536,1
"547",2,2,692,4,1,1688,"0",1,1474.01714285714,340.947247375963,0.3
"548",2,1,693,4,1,1182,"0",1,1180.02266288952,212.260371699536,1
"549",2,2,694,4,1,1127,"0",1,1474.01714285714,340.947247375963,1
"550",2,3,696,4,1,2347,"0",1,1688.56983240223,365.546472286483,0.3
"551",2,4,697,4,1,1437,"0",1,1636.67397260274,342.429298881976,1
"552",2,2,699,4,1,1217,"0",1,1474.01714285714,340.947247375963,0.3
"553",2,5,700,4,1,1377,"0",1,1553.66111111111,338.530046458668,1
"554",2,3,701,4,1,1633,"0",1,1688.56983240223,365.546472286483,0.3
"555",2,1,702,4,1,1123,"0",1,1180.02266288952,212.260371699536,0.3
"556",2,1,703,4,1,1068,"0",1,1180.02266288952,212.260371699536,1
"557",2,2,704,4,1,1393,"0",1,1474.01714285714,340.947247375963,0.3
"558",2,1,705,4,1,1118,"0",1,1180.02266288952,212.260371699536,1
"559",2,4,706,4,1,1586,"0",1,1636.67397260274,342.429298881976,1
"560",2,2,707,4,1,1699,"0",1,1474.01714285714,340.947247375963,0.3
"561",2,3,708,4,1,2168,"0",1,1688.56983240223,365.546472286483,1
"562",2,5,709,4,1,1978,"0",1,1553.66111111111,338.530046458668,0.3
"563",2,1,710,4,1,1046,"0",1,1180.02266288952,212.260371699536,0.3
"564",2,2,711,4,1,1483,"0",1,1474.01714285714,340.947247375963,0.3
"565",2,2,712,4,1,1121,"0",1,1474.01714285714,340.947247375963,0.3
"566",2,5,713,4,1,1587,"0",1,1553.66111111111,338.530046458668,0.3
"567",2,3,714,4,1,1862,"0",1,1688.56983240223,365.546472286483,0.3
"568",2,4,715,4,1,1457,"0",1,1636.67397260274,342.429298881976,1
"569",2,2,716,4,1,1067,"0",1,1474.01714285714,340.947247375963,1
"570",2,5,717,4,1,1322,"0",1,1553.66111111111,338.530046458668,1
"571",2,2,718,4,1,1079,"0",1,1474.01714285714,340.947247375963,0.3
"572",2,4,719,4,1,2214,"0",1,1636.67397260274,342.429298881976,0.3
"573",2,3,720,4,1,1437,"0",1,1688.56983240223,365.546472286483,0.3
"574",2,3,721,4,1,1457,"0",1,1688.56983240223,365.546472286483,1
"575",2,2,722,4,1,1285,"0",1,1474.01714285714,340.947247375963,0.3
"576",2,2,723,4,1,1285,"0",1,1474.01714285714,340.947247375963,0.3
"577",2,5,724,4,1,1613,"0",1,1553.66111111111,338.530046458668,0.3
"578",2,4,725,4,1,2007,"0",1,1636.67397260274,342.429298881976,0.3
"579",2,1,726,4,1,1109,"0",1,1180.02266288952,212.260371699536,1
"580",2,2,727,4,1,1334,"0",1,1474.01714285714,340.947247375963,0.3
"581",2,3,728,4,1,2079,"0",1,1688.56983240223,365.546472286483,0.3
"582",2,3,729,4,1,1565,"0",1,1688.56983240223,365.546472286483,0.3
"583",2,3,730,4,1,1363,"0",1,1688.56983240223,365.546472286483,0.3
"584",2,2,731,4,1,1162,"0",1,1474.01714285714,340.947247375963,1
"585",2,5,733,4,1,1307,"0",1,1553.66111111111,338.530046458668,0.3
"586",2,1,734,4,1,1115,"0",1,1180.02266288952,212.260371699536,0.3
"587",2,1,735,4,1,1068,"0",1,1180.02266288952,212.260371699536,1
"588",2,3,736,4,1,2267,"0",1,1688.56983240223,365.546472286483,0.3
"589",2,4,737,4,1,1680,"0",1,1636.67397260274,342.429298881976,0.3
"590",2,2,738,4,1,1079,"0",1,1474.01714285714,340.947247375963,0.3
"591",2,1,739,4,1,1124,"0",1,1180.02266288952,212.260371699536,0.3
"592",2,2,740,4,1,1224,"0",1,1474.01714285714,340.947247375963,0.3
"593",2,2,741,4,1,1227,"0",1,1474.01714285714,340.947247375963,1
"594",2,4,742,4,1,1850,"0",1,1636.67397260274,342.429298881976,0.3
"595",2,4,743,4,1,2214,"0",1,1636.67397260274,342.429298881976,0.3
"596",2,5,744,4,1,1276,"0",1,1553.66111111111,338.530046458668,1
"597",2,3,746,4,1,1913,"0",1,1688.56983240223,365.546472286483,0.3
"598",2,3,747,4,1,1726,"0",1,1688.56983240223,365.546472286483,0.3
"599",2,5,751,4,1,1402,"0",1,1553.66111111111,338.530046458668,1
"600",2,4,752,4,1,1974,"0",1,1636.67397260274,342.429298881976,1
"601",2,1,753,4,1,1367,"0",1,1180.02266288952,212.260371699536,1
"602",2,5,754,4,1,1307,"0",1,1553.66111111111,338.530046458668,1
"603",2,5,755,4,1,1198,"0",1,1553.66111111111,338.530046458668,0.3
"604",2,4,756,4,1,1414,"0",1,1636.67397260274,342.429298881976,1
"605",2,4,757,4,1,1680,"0",1,1636.67397260274,342.429298881976,0.3
"606",2,3,758,4,1,1714,"0",1,1688.56983240223,365.546472286483,0.3
"607",2,1,759,4,1,1124,"0",1,1180.02266288952,212.260371699536,0.3
"608",2,1,760,4,1,1102,"0",1,1180.02266288952,212.260371699536,1
"609",2,1,761,4,1,1302,"0",1,1180.02266288952,212.260371699536,1
"610",2,4,762,4,1,1584,"0",1,1636.67397260274,342.429298881976,1
"611",2,1,763,4,1,1297,"0",1,1180.02266288952,212.260371699536,0.3
"612",2,4,764,4,1,1963,"0",1,1636.67397260274,342.429298881976,1
"613",2,4,765,4,1,1919,"0",1,1636.67397260274,342.429298881976,0.3
"614",2,4,767,4,1,1182,"0",1,1636.67397260274,342.429298881976,1
"615",2,3,768,4,1,1292,"0",1,1688.56983240223,365.546472286483,0.3
"616",2,5,769,4,1,1384,"0",1,1553.66111111111,338.530046458668,0.3
"617",2,5,770,4,1,1616,"0",1,1553.66111111111,338.530046458668,1
"618",2,5,771,4,1,1298,"0",1,1553.66111111111,338.530046458668,0.3
"619",2,4,772,4,1,1746,"0",1,1636.67397260274,342.429298881976,1
"620",2,1,773,4,1,1026,"0",1,1180.02266288952,212.260371699536,0.3
"621",2,3,774,4,1,1527,"0",1,1688.56983240223,365.546472286483,1
"622",2,1,775,4,1,1085,"0",1,1180.02266288952,212.260371699536,1
"623",2,4,776,4,1,1603,"0",1,1636.67397260274,342.429298881976,1
"624",2,5,777,4,1,1434,"0",1,1553.66111111111,338.530046458668,1
"625",2,4,778,4,1,1635,"0",1,1636.67397260274,342.429298881976,0.3
"626",2,1,779,4,1,1085,"0",1,1180.02266288952,212.260371699536,1
"627",2,5,780,4,1,2065,"0",1,1553.66111111111,338.530046458668,1
"628",2,4,781,4,1,1414,"0",1,1636.67397260274,342.429298881976,1
"629",2,4,782,4,1,1746,"0",1,1636.67397260274,342.429298881976,1
"630",2,4,783,4,1,1863,"0",1,1636.67397260274,342.429298881976,1
"631",2,2,784,4,1,1283,"0",1,1474.01714285714,340.947247375963,0.3
"632",2,2,785,4,1,1086,"0",1,1474.01714285714,340.947247375963,1
"633",2,1,786,4,1,1115,"0",1,1180.02266288952,212.260371699536,0.3
"634",2,5,787,4,1,1526,"0",1,1553.66111111111,338.530046458668,1
"635",2,1,788,4,1,1165,"0",1,1180.02266288952,212.260371699536,0.3
"636",2,2,789,4,1,1079,"0",1,1474.01714285714,340.947247375963,1
"637",2,3,790,4,1,1292,"0",1,1688.56983240223,365.546472286483,0.3
"638",2,4,791,4,1,1447,"0",1,1636.67397260274,342.429298881976,1
"639",2,4,792,4,1,1620,"0",1,1636.67397260274,342.429298881976,0.3
"640",2,4,793,4,1,1315,"0",1,1636.67397260274,342.429298881976,1
"641",2,1,794,4,1,1123,"0",1,1180.02266288952,212.260371699536,0.3
"642",2,4,795,4,1,1185,"0",1,1636.67397260274,342.429298881976,0.3
"643",2,1,796,4,1,1085,"0",1,1180.02266288952,212.260371699536,1
"644",2,4,797,4,1,1286,"0",1,1636.67397260274,342.429298881976,0.3
"645",2,5,798,4,1,1322,"0",1,1553.66111111111,338.530046458668,1
"646",2,4,799,4,1,1929,"0",1,1636.67397260274,342.429298881976,1
"647",2,5,800,5,1,1902,"0",1,1553.66111111111,338.530046458668,0.3
"648",2,5,801,5,1,1615,"0",1,1553.66111111111,338.530046458668,1
"649",2,4,802,5,1,1929,"0",1,1636.67397260274,342.429298881976,1
"650",2,2,803,5,1,1227,"0",1,1474.01714285714,340.947247375963,0.3
"651",2,5,805,5,1,1163,"0",1,1553.66111111111,338.530046458668,1
"652",2,1,806,5,1,1384,"0",1,1180.02266288952,212.260371699536,0.3
"653",2,3,807,5,1,2345,"0",1,1688.56983240223,365.546472286483,0.3
"654",2,4,808,5,1,1683,"0",1,1636.67397260274,342.429298881976,1
"655",2,1,809,5,1,1247,"0",1,1180.02266288952,212.260371699536,0.3
"656",2,1,810,5,1,1139,"0",1,1180.02266288952,212.260371699536,0.3
"657",2,4,811,5,1,1587,"0",1,1636.67397260274,342.429298881976,1
"658",2,5,812,5,1,1326,"0",1,1553.66111111111,338.530046458668,1
"659",2,2,813,5,1,2008,"0",1,1474.01714285714,340.947247375963,1
"660",2,5,814,5,1,1125,"0",1,1553.66111111111,338.530046458668,1
"661",2,1,815,5,1,1225,"0",1,1180.02266288952,212.260371699536,1
"662",2,2,816,5,1,1162,"0",1,1474.01714285714,340.947247375963,0.3
"663",2,3,817,5,1,1635,"0",1,1688.56983240223,365.546472286483,1
"664",2,5,818,5,1,1276,"0",1,1553.66111111111,338.530046458668,0.3
"665",2,1,819,5,1,1214,"0",1,1180.02266288952,212.260371699536,0.3
"666",2,5,820,5,1,2127,"0",1,1553.66111111111,338.530046458668,0.3
"667",2,4,821,5,1,1414,"0",1,1636.67397260274,342.429298881976,0.3
"668",2,4,822,5,1,1329,"0",1,1636.67397260274,342.429298881976,0.3
"669",2,5,823,5,1,1615,"0",1,1553.66111111111,338.530046458668,0.3
"670",2,4,824,5,1,2007,"0",1,1636.67397260274,342.429298881976,1
"671",2,4,825,5,1,1237,"0",1,1636.67397260274,342.429298881976,0.3
"672",2,5,826,5,1,2025,"0",1,1553.66111111111,338.530046458668,0.3
"673",2,1,827,5,1,955,"0",1,1180.02266288952,212.260371699536,0.3
"674",2,3,828,5,1,1523,"0",1,1688.56983240223,365.546472286483,1
"675",2,3,831,5,1,2042,"0",1,1688.56983240223,365.546472286483,0.3
"676",2,5,832,5,1,1465,"0",1,1553.66111111111,338.530046458668,1
"677",2,2,833,5,1,1327,"0",1,1474.01714285714,340.947247375963,1
"678",2,1,834,5,1,1197,"0",1,1180.02266288952,212.260371699536,1
"679",2,1,835,5,1,1182,"0",1,1180.02266288952,212.260371699536,1
"680",2,3,836,5,1,1687,"0",1,1688.56983240223,365.546472286483,1
"681",2,2,837,5,1,2008,"0",1,1474.01714285714,340.947247375963,0.3
"682",2,2,838,5,1,1393,"0",1,1474.01714285714,340.947247375963,0.3
"683",2,3,839,5,1,1873,"0",1,1688.56983240223,365.546472286483,0.3
"684",2,4,840,5,1,1863,"0",1,1636.67397260274,342.429298881976,0.3
"685",2,2,841,5,1,2008,"0",1,1474.01714285714,340.947247375963,0.3
"686",2,5,842,5,1,1902,"0",1,1553.66111111111,338.530046458668,1
"687",2,4,844,5,1,1437,"0",1,1636.67397260274,342.429298881976,0.3
"688",2,5,845,5,1,1607,"0",1,1553.66111111111,338.530046458668,1
"689",2,1,846,5,1,1175,"0",1,1180.02266288952,212.260371699536,0.3
"690",2,1,847,5,1,1447,"0",1,1180.02266288952,212.260371699536,0.3
"691",2,2,848,5,1,1321,"0",1,1474.01714285714,340.947247375963,0.3
"692",2,1,849,5,1,1048,"0",1,1180.02266288952,212.260371699536,0.3
"693",2,1,850,5,1,1527,"0",1,1180.02266288952,212.260371699536,0.3
"694",2,2,851,5,1,1355,"0",1,1474.01714285714,340.947247375963,0.3
"695",2,4,852,5,1,1182,"0",1,1636.67397260274,342.429298881976,0.3
"696",2,4,853,5,1,1481,"0",1,1636.67397260274,342.429298881976,0.3
"697",2,4,854,5,1,1873,"0",1,1636.67397260274,342.429298881976,0.3
"698",2,3,855,5,1,1531,"0",1,1688.56983240223,365.546472286483,0.3
"699",2,2,856,5,1,1408,"0",1,1474.01714285714,340.947247375963,0.3
"700",2,4,857,5,1,1546,"0",1,1636.67397260274,342.429298881976,1
"701",2,2,858,5,1,1285,"0",1,1474.01714285714,340.947247375963,0.3
"702",2,4,859,5,1,1694,"0",1,1636.67397260274,342.429298881976,0.3
"703",2,2,860,5,1,2096,"0",1,1474.01714285714,340.947247375963,0.3
"704",2,5,861,5,1,1163,"0",1,1553.66111111111,338.530046458668,1
"705",2,1,862,5,1,1225,"0",1,1180.02266288952,212.260371699536,0.3
"706",2,4,863,5,1,1566,"0",1,1636.67397260274,342.429298881976,0.3
"707",2,4,864,5,1,1272,"0",1,1636.67397260274,342.429298881976,0.3
"708",2,5,865,5,1,1362,"0",1,1553.66111111111,338.530046458668,1
"709",2,3,866,5,1,1764,"0",1,1688.56983240223,365.546472286483,1
"710",2,4,867,5,1,1448,"0",1,1636.67397260274,342.429298881976,0.3
"711",2,3,868,5,1,1403,"0",1,1688.56983240223,365.546472286483,0.3
"712",2,2,869,5,1,1152,"0",1,1474.01714285714,340.947247375963,0.3
"713",2,4,870,5,1,1182,"0",1,1636.67397260274,342.429298881976,1
"714",2,5,871,5,1,1448,"0",1,1553.66111111111,338.530046458668,0.3
"715",2,3,872,5,1,1877,"0",1,1688.56983240223,365.546472286483,1
"716",2,1,873,5,1,1043,"0",1,1180.02266288952,212.260371699536,1
"717",2,4,874,5,1,1360,"0",1,1636.67397260274,342.429298881976,1
"718",2,2,875,5,1,1266,"0",1,1474.01714285714,340.947247375963,0.3
"719",2,2,876,5,1,1326,"0",1,1474.01714285714,340.947247375963,0.3
"720",2,2,877,5,1,1498,"0",1,1474.01714285714,340.947247375963,0.3
"721",2,2,878,5,1,1547,"0",1,1474.01714285714,340.947247375963,0.3
"722",2,1,879,5,1,1206,"0",1,1180.02266288952,212.260371699536,0.3
"723",2,4,880,5,1,1635,"0",1,1636.67397260274,342.429298881976,0.3
"724",2,2,881,5,1,1287,"0",1,1474.01714285714,340.947247375963,1
"725",2,5,882,5,1,1473,"0",1,1553.66111111111,338.530046458668,0.3
"726",2,3,883,5,1,1556,"0",1,1688.56983240223,365.546472286483,0.3
"727",2,4,884,5,1,1635,"0",1,1636.67397260274,342.429298881976,1
"728",2,1,885,5,1,1367,"0",1,1180.02266288952,212.260371699536,1
"729",2,4,886,5,1,1963,"0",1,1636.67397260274,342.429298881976,1
"730",2,2,887,5,1,1086,"0",1,1474.01714285714,340.947247375963,1
"731",2,5,888,5,1,1428,"0",1,1553.66111111111,338.530046458668,0.3
"732",2,1,889,5,1,1527,"0",1,1180.02266288952,212.260371699536,1
"733",2,1,890,5,1,1175,"0",1,1180.02266288952,212.260371699536,0.3
"734",2,1,891,5,1,875,"0",1,1180.02266288952,212.260371699536,1
"735",2,1,892,5,1,1068,"0",1,1180.02266288952,212.260371699536,1
"736",2,3,893,5,1,1913,"0",1,1688.56983240223,365.546472286483,0.3
"737",2,3,894,5,1,1862,"0",1,1688.56983240223,365.546472286483,0.3
"738",2,2,895,5,1,1359,"0",1,1474.01714285714,340.947247375963,0.3
"739",2,2,896,5,1,1383,"0",1,1474.01714285714,340.947247375963,1
"740",2,1,897,5,1,1243,"0",1,1180.02266288952,212.260371699536,0.3
"741",2,2,898,5,1,1801,"0",1,1474.01714285714,340.947247375963,1
"742",2,2,899,5,1,1688,"0",1,1474.01714285714,340.947247375963,1
"743",2,2,900,5,1,1285,"0",1,1474.01714285714,340.947247375963,0.3
"744",2,4,901,5,1,1620,"0",1,1636.67397260274,342.429298881976,1
"745",2,2,902,5,1,2049,"0",1,1474.01714285714,340.947247375963,0.3
"746",2,1,903,5,1,1133,"0",1,1180.02266288952,212.260371699536,0.3
"747",2,4,904,5,1,1167,"0",1,1636.67397260274,342.429298881976,1
"748",2,2,905,5,1,1547,"0",1,1474.01714285714,340.947247375963,0.3
"749",2,1,907,5,1,1104,"0",1,1180.02266288952,212.260371699536,0.3
"750",2,1,908,5,1,1596,"0",1,1180.02266288952,212.260371699536,0.3
"751",2,2,909,5,1,1318,"0",1,1474.01714285714,340.947247375963,0.3
"752",2,2,911,5,1,1326,"0",1,1474.01714285714,340.947247375963,0.3
"753",2,5,912,5,1,1156,"0",1,1553.66111111111,338.530046458668,0.3
"754",2,5,913,5,1,1326,"0",1,1553.66111111111,338.530046458668,0.3
"755",2,2,914,5,1,1699,"0",1,1474.01714285714,340.947247375963,1
"756",2,1,915,5,1,1115,"0",1,1180.02266288952,212.260371699536,1
"757",2,1,916,5,1,1163,"0",1,1180.02266288952,212.260371699536,1
"758",2,3,917,5,1,1437,"0",1,1688.56983240223,365.546472286483,1
"759",2,2,919,5,1,1398,"0",1,1474.01714285714,340.947247375963,0.3
"760",2,4,920,5,1,1315,"0",1,1636.67397260274,342.429298881976,0.3
"761",2,4,921,5,1,1694,"0",1,1636.67397260274,342.429298881976,1
"762",2,1,922,5,1,1175,"0",1,1180.02266288952,212.260371699536,0.3
"763",2,4,923,5,1,1506,"0",1,1636.67397260274,342.429298881976,0.3
"764",2,2,924,5,1,1645,"0",1,1474.01714285714,340.947247375963,1
"765",2,3,925,5,1,1353,"0",1,1688.56983240223,365.546472286483,1
"766",2,1,926,5,1,1068,"0",1,1180.02266288952,212.260371699536,1
"767",2,3,927,5,1,1342,"0",1,1688.56983240223,365.546472286483,1
"768",2,5,928,5,1,1428,"0",1,1553.66111111111,338.530046458668,1
"769",2,5,929,5,1,1199,"0",1,1553.66111111111,338.530046458668,0.3
"770",2,4,930,5,1,1352,"0",1,1636.67397260274,342.429298881976,1
"771",2,4,931,5,1,1615,"0",1,1636.67397260274,342.429298881976,1
"772",2,3,933,5,1,1566,"0",1,1688.56983240223,365.546472286483,1
"773",2,4,934,5,1,1335,"0",1,1636.67397260274,342.429298881976,1
"774",2,1,935,5,1,1065,"0",1,1180.02266288952,212.260371699536,1
"775",2,2,937,5,1,1384,"0",1,1474.01714285714,340.947247375963,0.3
"776",2,5,938,5,1,1362,"0",1,1553.66111111111,338.530046458668,0.3
"777",2,5,939,5,1,1473,"0",1,1553.66111111111,338.530046458668,0.3
"778",2,3,940,5,1,1523,"0",1,1688.56983240223,365.546472286483,0.3
"779",2,5,941,5,1,1587,"0",1,1553.66111111111,338.530046458668,1
"780",2,5,942,5,1,1979,"0",1,1553.66111111111,338.530046458668,1
"781",2,4,943,5,1,2164,"0",1,1636.67397260274,342.429298881976,1
"782",2,3,944,5,1,1308,"0",1,1688.56983240223,365.546472286483,0.3
"783",2,2,945,5,1,1359,"0",1,1474.01714285714,340.947247375963,0.3
"784",2,2,946,5,1,1326,"0",1,1474.01714285714,340.947247375963,1
"785",2,1,947,5,1,1139,"0",1,1180.02266288952,212.260371699536,1
"786",2,3,948,5,1,1565,"0",1,1688.56983240223,365.546472286483,1
"787",2,3,949,5,1,1531,"0",1,1688.56983240223,365.546472286483,0.3
"788",2,5,950,5,1,1236,"0",1,1553.66111111111,338.530046458668,1
"789",2,5,951,5,1,1663,"0",1,1553.66111111111,338.530046458668,0.3
"790",2,1,952,5,1,1194,"0",1,1180.02266288952,212.260371699536,1
"791",2,5,953,5,1,1726,"0",1,1553.66111111111,338.530046458668,1
"792",2,4,954,5,1,1475,"0",1,1636.67397260274,342.429298881976,1
"793",2,2,955,5,1,1285,"0",1,1474.01714285714,340.947247375963,0.3
"794",2,2,956,5,1,1512,"0",1,1474.01714285714,340.947247375963,0.3
"795",2,3,957,5,1,2042,"0",1,1688.56983240223,365.546472286483,0.3
"796",2,4,959,5,1,1638,"0",1,1636.67397260274,342.429298881976,1
"797",2,4,960,5,1,1286,"0",1,1636.67397260274,342.429298881976,1
"798",2,2,961,5,1,1086,"0",1,1474.01714285714,340.947247375963,0.3
"799",2,4,962,5,1,1447,"0",1,1636.67397260274,342.429298881976,0.3
"800",2,1,963,5,1,1106,"0",1,1180.02266288952,212.260371699536,0.3
"801",2,2,964,5,1,1127,"0",1,1474.01714285714,340.947247375963,0.3
"802",2,2,965,5,1,1067,"0",1,1474.01714285714,340.947247375963,0.3
"803",2,1,967,5,1,875,"0",1,1180.02266288952,212.260371699536,0.3
"804",2,3,968,5,1,1708,"0",1,1688.56983240223,365.546472286483,0.3
"805",2,3,969,5,1,1891,"0",1,1688.56983240223,365.546472286483,0.3
"806",2,3,970,5,1,1523,"0",1,1688.56983240223,365.546472286483,1
"807",2,2,971,5,1,1547,"0",1,1474.01714285714,340.947247375963,1
"808",2,2,972,5,1,1393,"0",1,1474.01714285714,340.947247375963,0.3
"809",2,3,973,5,1,1437,"0",1,1688.56983240223,365.546472286483,0.3
"810",2,4,974,5,1,1444,"0",1,1636.67397260274,342.429298881976,0.3
"811",2,4,975,5,1,1448,"0",1,1636.67397260274,342.429298881976,1
"812",2,3,976,5,1,1514,"0",1,1688.56983240223,365.546472286483,1
"813",2,4,977,5,1,1603,"0",1,1636.67397260274,342.429298881976,0.3
"814",2,5,978,5,1,1617,"0",1,1553.66111111111,338.530046458668,0.3
"815",2,2,979,5,1,1180,"0",1,1474.01714285714,340.947247375963,1
"816",2,1,980,5,1,1345,"0",1,1180.02266288952,212.260371699536,1
"817",2,4,981,5,1,1735,"0",1,1636.67397260274,342.429298881976,1
"818",2,3,982,5,1,2227,"0",1,1688.56983240223,365.546472286483,1
"819",2,3,983,5,1,2227,"0",1,1688.56983240223,365.546472286483,0.3
"820",2,1,984,5,1,1085,"0",1,1180.02266288952,212.260371699536,1
"821",2,1,985,5,1,1123,"0",1,1180.02266288952,212.260371699536,1
"822",2,1,986,5,1,1384,"0",1,1180.02266288952,212.260371699536,0.3
"823",2,1,987,5,1,1175,"0",1,1180.02266288952,212.260371699536,1
"824",2,3,988,5,1,2188,"0",1,1688.56983240223,365.546472286483,1
"825",2,4,989,5,1,1864,"0",1,1636.67397260274,342.429298881976,1
"826",2,2,990,5,1,1801,"0",1,1474.01714285714,340.947247375963,0.3
"827",2,3,991,5,1,1891,"0",1,1688.56983240223,365.546472286483,1
"828",2,5,992,5,1,1377,"0",1,1553.66111111111,338.530046458668,0.3
"829",2,5,993,5,1,1682,"0",1,1553.66111111111,338.530046458668,0.3
"830",2,2,994,5,1,1086,"0",1,1474.01714285714,340.947247375963,0.3
"831",2,4,995,5,1,1694,"0",1,1636.67397260274,342.429298881976,0.3
"832",2,3,997,5,1,2270,"0",1,1688.56983240223,365.546472286483,1
"833",2,4,998,5,1,1448,"0",1,1636.67397260274,342.429298881976,0.3
"834",2,5,999,5,1,1422,"0",1,1553.66111111111,338.530046458668,1
"835",2,5,1000,6,1,1526,"0",1,1553.66111111111,338.530046458668,0.3
"836",2,4,1001,6,1,1123,"0",1,1636.67397260274,342.429298881976,0.3
"837",2,3,1002,6,1,1181,"0",1,1688.56983240223,365.546472286483,1
"838",2,3,1003,6,1,1514,"0",1,1688.56983240223,365.546472286483,1
"839",2,4,1004,6,1,1603,"0",1,1636.67397260274,342.429298881976,1
"840",2,5,1005,6,1,2096,"0",1,1553.66111111111,338.530046458668,0.3
"841",2,4,1006,6,1,1546,"0",1,1636.67397260274,342.429298881976,0.3
"842",2,2,1007,6,1,1645,"0",1,1474.01714285714,340.947247375963,0.3
"843",2,1,1008,6,1,1178,"0",1,1180.02266288952,212.260371699536,0.3
"844",2,2,1009,6,1,1350,"0",1,1474.01714285714,340.947247375963,0.3
"845",2,5,1010,6,1,1684,"0",1,1553.66111111111,338.530046458668,1
"846",2,1,1011,6,1,1156,"0",1,1180.02266288952,212.260371699536,1
"847",2,4,1012,6,1,1919,"0",1,1636.67397260274,342.429298881976,0.3
"848",2,4,1013,6,1,1695,"0",1,1636.67397260274,342.429298881976,0.3
"849",2,3,1014,6,1,1495,"0",1,1688.56983240223,365.546472286483,0.3
"850",2,1,1015,6,1,1225,"0",1,1180.02266288952,212.260371699536,0.3
"851",2,2,1016,6,1,1266,"0",1,1474.01714285714,340.947247375963,0.3
"852",2,2,1017,6,1,1217,"0",1,1474.01714285714,340.947247375963,1
"853",2,3,1018,6,1,1675,"0",1,1688.56983240223,365.546472286483,0.3
"854",2,2,1019,6,1,1178,"0",1,1474.01714285714,340.947247375963,1
"855",2,2,1020,6,1,1318,"0",1,1474.01714285714,340.947247375963,0.3
"856",2,3,1021,6,1,1523,"0",1,1688.56983240223,365.546472286483,1
"857",2,3,1022,6,1,1308,"0",1,1688.56983240223,365.546472286483,0.3
"858",2,3,1023,6,1,1913,"0",1,1688.56983240223,365.546472286483,0.3
"859",2,5,1024,6,1,1127,"0",1,1553.66111111111,338.530046458668,0.3
"860",2,3,1025,6,1,1268,"0",1,1688.56983240223,365.546472286483,0.3
"861",2,5,1026,6,1,1186,"0",1,1553.66111111111,338.530046458668,1
"862",2,3,1027,6,1,1268,"0",1,1688.56983240223,365.546472286483,0.3
"863",2,1,1028,6,1,1014,"0",1,1180.02266288952,212.260371699536,1
"864",2,3,1029,6,1,1241,"0",1,1688.56983240223,365.546472286483,0.3
"865",2,3,1030,6,1,1633,"0",1,1688.56983240223,365.546472286483,1
"866",2,3,1031,6,1,2227,"0",1,1688.56983240223,365.546472286483,0.3
"867",2,3,1034,6,1,1310,"0",1,1688.56983240223,365.546472286483,0.3
"868",2,4,1035,6,1,2105,"0",1,1636.67397260274,342.429298881976,0.3
"869",2,1,1036,6,1,1194,"0",1,1180.02266288952,212.260371699536,0.3
"870",2,3,1037,6,1,1764,"0",1,1688.56983240223,365.546472286483,0.3
"871",2,4,1038,6,1,1346,"0",1,1636.67397260274,342.429298881976,1
"872",2,1,1039,6,1,1206,"0",1,1180.02266288952,212.260371699536,0.3
"873",2,3,1040,6,1,1725,"0",1,1688.56983240223,365.546472286483,1
"874",2,4,1041,6,1,1335,"0",1,1636.67397260274,342.429298881976,0.3
"875",2,5,1042,6,1,1603,"0",1,1553.66111111111,338.530046458668,1
"876",2,4,1043,6,1,1635,"0",1,1636.67397260274,342.429298881976,1
"877",2,3,1044,6,1,2345,"0",1,1688.56983240223,365.546472286483,1
"878",2,3,1045,6,1,1725,"0",1,1688.56983240223,365.546472286483,0.3
"879",2,1,1046,6,1,1104,"0",1,1180.02266288952,212.260371699536,0.3
"880",2,5,1047,6,1,1198,"0",1,1553.66111111111,338.530046458668,1
"881",2,5,1048,6,1,2065,"0",1,1553.66111111111,338.530046458668,1
"882",2,4,1049,6,1,1237,"0",1,1636.67397260274,342.429298881976,1
"883",2,1,1050,6,1,1118,"0",1,1180.02266288952,212.260371699536,0.3
"884",2,2,1051,6,1,1767,"0",1,1474.01714285714,340.947247375963,0.3
"885",2,3,1054,6,1,1213,"0",1,1688.56983240223,365.546472286483,0.3
"886",2,2,1055,6,1,1645,"0",1,1474.01714285714,340.947247375963,0.3
"887",2,1,1056,6,1,1085,"0",1,1180.02266288952,212.260371699536,0.3
"888",2,3,1057,6,1,1725,"0",1,1688.56983240223,365.546472286483,1
"889",2,5,1058,6,1,1387,"0",1,1553.66111111111,338.530046458668,0.3
"890",2,4,1059,6,1,1574,"0",1,1636.67397260274,342.429298881976,1
"891",2,2,1060,6,1,2052,"0",1,1474.01714285714,340.947247375963,1
"892",2,2,1061,6,1,1527,"0",1,1474.01714285714,340.947247375963,1
"893",2,5,1062,6,1,1156,"0",1,1553.66111111111,338.530046458668,0.3
"894",2,4,1063,6,1,1574,"0",1,1636.67397260274,342.429298881976,1
"895",2,4,1064,6,1,1414,"0",1,1636.67397260274,342.429298881976,0.3
"896",2,5,1065,6,1,1345,"0",1,1553.66111111111,338.530046458668,1
"897",2,2,1066,6,1,1645,"0",1,1474.01714285714,340.947247375963,0.3
"898",2,2,1067,6,1,2052,"0",1,1474.01714285714,340.947247375963,1
"899",2,2,1068,6,1,1321,"0",1,1474.01714285714,340.947247375963,0.3
"900",2,2,1069,6,1,1483,"0",1,1474.01714285714,340.947247375963,1
"901",2,3,1070,6,1,1290,"0",1,1688.56983240223,365.546472286483,0.3
"902",2,1,1071,6,1,1104,"0",1,1180.02266288952,212.260371699536,1
"903",2,2,1072,6,1,1439,"0",1,1474.01714285714,340.947247375963,0.3
"904",2,2,1073,6,1,1184,"0",1,1474.01714285714,340.947247375963,1
"905",2,5,1074,6,1,1162,"0",1,1553.66111111111,338.530046458668,0.3
"906",2,3,1075,6,1,1708,"0",1,1688.56983240223,365.546472286483,0.3
"907",2,5,1076,6,1,1313,"0",1,1553.66111111111,338.530046458668,1
"908",2,2,1077,6,1,1350,"0",1,1474.01714285714,340.947247375963,1
"909",2,4,1078,6,1,1503,"0",1,1636.67397260274,342.429298881976,1
"910",2,5,1079,6,1,1285,"0",1,1553.66111111111,338.530046458668,1
"911",2,4,1080,6,1,1546,"0",1,1636.67397260274,342.429298881976,1
"912",2,5,1081,6,1,2025,"0",1,1553.66111111111,338.530046458668,1
"913",2,5,1082,6,1,1524,"0",1,1553.66111111111,338.530046458668,1
"914",2,2,1083,6,1,2096,"0",1,1474.01714285714,340.947247375963,1
"915",2,4,1084,6,1,1929,"0",1,1636.67397260274,342.429298881976,0.3
"916",2,5,1085,6,1,1387,"0",1,1553.66111111111,338.530046458668,1
"917",2,3,1086,6,1,1627,"0",1,1688.56983240223,365.546472286483,1
"918",2,1,1087,6,1,1048,"0",1,1180.02266288952,212.260371699536,1
"919",2,2,1088,6,1,1355,"0",1,1474.01714285714,340.947247375963,0.3
"920",2,5,1089,6,1,1829,"0",1,1553.66111111111,338.530046458668,0.3
"921",2,4,1090,6,1,1680,"0",1,1636.67397260274,342.429298881976,0.3
"922",2,5,1092,6,1,1682,"0",1,1553.66111111111,338.530046458668,1
"923",2,3,1093,6,1,2267,"0",1,1688.56983240223,365.546472286483,1
"924",2,3,1094,6,1,1514,"0",1,1688.56983240223,365.546472286483,1
"925",2,2,1095,6,1,1326,"0",1,1474.01714285714,340.947247375963,0.3
"926",2,3,1096,6,1,1714,"0",1,1688.56983240223,365.546472286483,0.3
"927",2,5,1097,6,1,1162,"0",1,1553.66111111111,338.530046458668,0.3
"928",2,1,1098,6,1,1194,"0",1,1180.02266288952,212.260371699536,0.3
"929",2,5,1099,6,1,1199,"0",1,1553.66111111111,338.530046458668,1
"930",2,3,1101,6,1,1877,"0",1,1688.56983240223,365.546472286483,0.3
"931",2,1,1102,6,1,1596,"0",1,1180.02266288952,212.260371699536,0.3
"932",2,4,1103,6,1,1182,"0",1,1636.67397260274,342.429298881976,0.3
"933",2,1,1104,6,1,1085,"0",1,1180.02266288952,212.260371699536,0.3
"934",2,1,1105,6,1,1367,"0",1,1180.02266288952,212.260371699536,0.3
"935",2,1,1106,6,1,1085,"0",1,1180.02266288952,212.260371699536,1
"936",2,5,1107,6,1,1402,"0",1,1553.66111111111,338.530046458668,0.3
"937",2,5,1108,6,1,1198,"0",1,1553.66111111111,338.530046458668,1
"938",2,5,1109,6,1,1473,"0",1,1553.66111111111,338.530046458668,0.3
"939",2,3,1110,6,1,2188,"0",1,1688.56983240223,365.546472286483,0.3
"940",2,1,1111,6,1,1194,"0",1,1180.02266288952,212.260371699536,1
"941",2,5,1112,6,1,1345,"0",1,1553.66111111111,338.530046458668,0.3
"942",2,4,1113,6,1,1481,"0",1,1636.67397260274,342.429298881976,0.3
"943",2,2,1114,6,1,1127,"0",1,1474.01714285714,340.947247375963,0.3
"944",2,4,1115,6,1,1481,"0",1,1636.67397260274,342.429298881976,1
"945",2,3,1116,6,1,1525,"0",1,1688.56983240223,365.546472286483,0.3
"946",2,4,1117,6,1,1444,"0",1,1636.67397260274,342.429298881976,0.3
"947",2,4,1118,6,1,1306,"0",1,1636.67397260274,342.429298881976,0.3
"948",2,1,1119,6,1,1043,"0",1,1180.02266288952,212.260371699536,1
"949",2,2,1120,6,1,1398,"0",1,1474.01714285714,340.947247375963,1
"950",2,1,1121,6,1,1046,"0",1,1180.02266288952,212.260371699536,1
"951",2,3,1122,6,1,1527,"0",1,1688.56983240223,365.546472286483,1
"952",2,5,1123,6,1,1465,"0",1,1553.66111111111,338.530046458668,1
"953",2,2,1124,6,1,1344,"0",1,1474.01714285714,340.947247375963,1
"954",2,2,1125,6,1,2096,"0",1,1474.01714285714,340.947247375963,1
"955",2,5,1126,6,1,1603,"0",1,1553.66111111111,338.530046458668,1
"956",2,1,1127,6,1,877,"0",1,1180.02266288952,212.260371699536,0.3
"957",2,3,1128,6,1,1687,"0",1,1688.56983240223,365.546472286483,1
"958",2,1,1129,6,1,1118,"0",1,1180.02266288952,212.260371699536,0.3
"959",2,3,1130,6,1,1525,"0",1,1688.56983240223,365.546472286483,0.3
"960",2,1,1131,6,1,1100,"0",1,1180.02266288952,212.260371699536,1
"961",2,4,1132,6,1,1256,"0",1,1636.67397260274,342.429298881976,0.3
"962",2,1,1133,6,1,1133,"0",1,1180.02266288952,212.260371699536,1
"963",2,1,1134,6,1,955,"0",1,1180.02266288952,212.260371699536,0.3
"964",2,2,1135,6,1,1152,"0",1,1474.01714285714,340.947247375963,1
"965",2,3,1136,6,1,1308,"0",1,1688.56983240223,365.546472286483,0.3
"966",2,3,1137,6,1,1708,"0",1,1688.56983240223,365.546472286483,1
"967",2,2,1138,6,1,2049,"0",1,1474.01714285714,340.947247375963,0.3
"968",2,5,1139,6,1,1465,"0",1,1553.66111111111,338.530046458668,0.3
"969",2,2,1140,6,1,1749,"0",1,1474.01714285714,340.947247375963,1
"970",2,5,1141,6,1,1806,"0",1,1553.66111111111,338.530046458668,1
"971",2,2,1142,6,1,1340,"0",1,1474.01714285714,340.947247375963,1
"972",2,1,1143,6,1,1092,"0",1,1180.02266288952,212.260371699536,1
"973",2,4,1144,6,1,1984,"0",1,1636.67397260274,342.429298881976,1
"974",2,3,1145,6,1,1566,"0",1,1688.56983240223,365.546472286483,0.3
"975",2,1,1146,6,1,1164,"0",1,1180.02266288952,212.260371699536,1
"976",2,4,1147,6,1,1437,"0",1,1636.67397260274,342.429298881976,0.3
"977",2,3,1148,6,1,1241,"0",1,1688.56983240223,365.546472286483,0.3
"978",2,5,1149,6,1,1107,"0",1,1553.66111111111,338.530046458668,1
"979",2,1,1150,6,1,1065,"0",1,1180.02266288952,212.260371699536,0.3
"980",2,5,1151,6,1,1624,"0",1,1553.66111111111,338.530046458668,0.3
"981",2,2,1152,6,1,1121,"0",1,1474.01714285714,340.947247375963,0.3
"982",2,4,1153,6,1,1529,"0",1,1636.67397260274,342.429298881976,0.3
"983",2,1,1154,6,1,1225,"0",1,1180.02266288952,212.260371699536,0.3
"984",2,1,1155,6,1,1102,"0",1,1180.02266288952,212.260371699536,1
"985",2,2,1156,6,1,1829,"0",1,1474.01714285714,340.947247375963,0.3
"986",2,1,1157,6,1,1194,"0",1,1180.02266288952,212.260371699536,0.3
"987",2,3,1158,6,1,1764,"0",1,1688.56983240223,365.546472286483,0.3
"988",2,2,1159,6,1,1393,"0",1,1474.01714285714,340.947247375963,0.3
"989",2,1,1160,6,1,1118,"0",1,1180.02266288952,212.260371699536,1
"990",2,2,1161,6,1,1688,"0",1,1474.01714285714,340.947247375963,1
"991",2,5,1162,6,1,1107,"0",1,1553.66111111111,338.530046458668,0.3
"992",2,5,1163,6,1,1313,"0",1,1553.66111111111,338.530046458668,1
"993",2,2,1164,6,1,1283,"0",1,1474.01714285714,340.947247375963,1
"994",2,4,1165,6,1,1416,"0",1,1636.67397260274,342.429298881976,1
"995",2,2,1166,6,1,1749,"0",1,1474.01714285714,340.947247375963,1
"996",2,5,1167,6,1,2096,"0",1,1553.66111111111,338.530046458668,1
"997",2,2,1168,6,1,1234,"0",1,1474.01714285714,340.947247375963,0.3
"998",2,3,1169,6,1,2042,"0",1,1688.56983240223,365.546472286483,1
"999",2,3,1170,6,1,1402,"0",1,1688.56983240223,365.546472286483,0.3
"1000",2,4,1171,6,1,1429,"0",1,1636.67397260274,342.429298881976,0.3
"1001",2,4,1172,6,1,1239,"0",1,1636.67397260274,342.429298881976,0.3
"1002",2,3,1173,6,1,1292,"0",1,1688.56983240223,365.546472286483,0.3
"1003",2,5,1174,6,1,1454,"0",1,1553.66111111111,338.530046458668,0.3
"1004",2,1,1175,6,1,1345,"0",1,1180.02266288952,212.260371699536,1
"1005",2,5,1176,6,1,2025,"0",1,1553.66111111111,338.530046458668,1
"1006",2,3,1177,6,1,1402,"0",1,1688.56983240223,365.546472286483,1
"1007",2,2,1178,6,1,1645,"0",1,1474.01714285714,340.947247375963,1
"1008",2,1,1179,6,1,877,"0",1,1180.02266288952,212.260371699536,0.3
"1009",2,3,1180,6,1,1806,"0",1,1688.56983240223,365.546472286483,0.3
"1010",2,5,1181,6,1,1298,"0",1,1553.66111111111,338.530046458668,0.3
"1011",2,5,1182,6,1,1176,"0",1,1553.66111111111,338.530046458668,1
"1012",2,1,1184,6,1,1123,"0",1,1180.02266288952,212.260371699536,0.3
"1013",2,3,1185,6,1,1675,"0",1,1688.56983240223,365.546472286483,1
"1014",2,1,1186,6,1,1106,"0",1,1180.02266288952,212.260371699536,0.3
"1015",2,3,1187,6,1,1213,"0",1,1688.56983240223,365.546472286483,1
"1016",2,5,1188,6,1,1465,"0",1,1553.66111111111,338.530046458668,0.3
"1017",2,3,1189,6,1,1862,"0",1,1688.56983240223,365.546472286483,0.3
"1018",2,1,1190,6,1,1103,"0",1,1180.02266288952,212.260371699536,0.3
"1019",2,1,1191,6,1,1077,"0",1,1180.02266288952,212.260371699536,1
"1020",2,2,1192,6,1,1395,"0",1,1474.01714285714,340.947247375963,0.3
"1021",2,1,1193,6,1,1016,"0",1,1180.02266288952,212.260371699536,1
"1022",2,4,1194,6,1,1963,"0",1,1636.67397260274,342.429298881976,1
"1023",2,2,1195,6,1,1605,"0",1,1474.01714285714,340.947247375963,1
"1024",2,1,1196,6,1,1085,"0",1,1180.02266288952,212.260371699536,1
"1025",2,3,1197,6,1,1873,"0",1,1688.56983240223,365.546472286483,1
"1026",2,2,1198,6,1,1465,"0",1,1474.01714285714,340.947247375963,0.3
"1027",2,2,1199,6,1,1527,"0",1,1474.01714285714,340.947247375963,0.3
"1028",2,1,1200,7,1,1527,"0",1,1180.02266288952,212.260371699536,0.3
"1029",2,1,1201,7,1,1077,"0",1,1180.02266288952,212.260371699536,0.3
"1030",2,2,1202,7,1,1465,"0",1,1474.01714285714,340.947247375963,1
"1031",2,4,1203,7,1,1256,"0",1,1636.67397260274,342.429298881976,1
"1032",2,2,1204,7,1,1162,"0",1,1474.01714285714,340.947247375963,0.3
"1033",2,4,1205,7,1,1272,"0",1,1636.67397260274,342.429298881976,1
"1034",2,2,1206,7,1,1190,"0",1,1474.01714285714,340.947247375963,0.3
"1035",2,1,1207,7,1,1100,"0",1,1180.02266288952,212.260371699536,1
"1036",2,5,1208,7,1,1163,"0",1,1553.66111111111,338.530046458668,0.3
"1037",2,3,1209,7,1,1506,"0",1,1688.56983240223,365.546472286483,1
"1038",2,4,1210,7,1,1985,"0",1,1636.67397260274,342.429298881976,1
"1039",2,3,1211,7,1,1274,"0",1,1688.56983240223,365.546472286483,1
"1040",2,3,1212,7,1,1391,"0",1,1688.56983240223,365.546472286483,1
"1041",2,5,1214,7,1,1307,"0",1,1553.66111111111,338.530046458668,0.3
"1042",2,3,1215,7,1,1353,"0",1,1688.56983240223,365.546472286483,0.3
"1043",2,5,1216,7,1,1345,"0",1,1553.66111111111,338.530046458668,1
"1044",2,2,1217,7,1,1571,"0",1,1474.01714285714,340.947247375963,0.3
"1045",2,5,1218,7,1,1385,"0",1,1553.66111111111,338.530046458668,0.3
"1046",2,2,1219,7,1,2052,"0",1,1474.01714285714,340.947247375963,1
"1047",2,5,1220,7,1,1613,"0",1,1553.66111111111,338.530046458668,1
"1048",2,5,1221,7,1,1626,"0",1,1553.66111111111,338.530046458668,1
"1049",2,3,1222,7,1,2163,"0",1,1688.56983240223,365.546472286483,0.3
"1050",2,3,1223,7,1,1892,"0",1,1688.56983240223,365.546472286483,1
"1051",2,4,1224,7,1,1448,"0",1,1636.67397260274,342.429298881976,0.3
"1052",2,1,1225,7,1,1104,"0",1,1180.02266288952,212.260371699536,0.3
"1053",2,1,1226,7,1,1123,"0",1,1180.02266288952,212.260371699536,0.3
"1054",2,3,1227,7,1,1378,"0",1,1688.56983240223,365.546472286483,1
"1055",2,4,1228,7,1,1635,"0",1,1636.67397260274,342.429298881976,0.3
"1056",2,4,1229,7,1,1985,"0",1,1636.67397260274,342.429298881976,0.3
"1057",2,1,1230,7,1,1175,"0",1,1180.02266288952,212.260371699536,1
"1058",2,4,1231,7,1,1306,"0",1,1636.67397260274,342.429298881976,0.3
"1059",2,5,1232,7,1,1162,"0",1,1553.66111111111,338.530046458668,0.3
"1060",2,5,1233,7,1,1722,"0",1,1553.66111111111,338.530046458668,1
"1061",2,5,1234,7,1,1198,"0",1,1553.66111111111,338.530046458668,0.3
"1062",2,2,1235,7,1,1152,"0",1,1474.01714285714,340.947247375963,1
"1063",2,2,1236,7,1,1325,"0",1,1474.01714285714,340.947247375963,1
"1064",2,3,1237,7,1,1556,"0",1,1688.56983240223,365.546472286483,0.3
"1065",2,3,1238,7,1,2345,"0",1,1688.56983240223,365.546472286483,1
"1066",2,5,1239,7,1,2127,"0",1,1553.66111111111,338.530046458668,0.3
"1067",2,4,1240,7,1,1329,"0",1,1636.67397260274,342.429298881976,1
"1068",2,1,1241,7,1,1374,"0",1,1180.02266288952,212.260371699536,1
"1069",2,3,1242,7,1,1675,"0",1,1688.56983240223,365.546472286483,1
"1070",2,3,1243,7,1,1310,"0",1,1688.56983240223,365.546472286483,1
"1071",2,5,1244,7,1,1978,"0",1,1553.66111111111,338.530046458668,0.3
"1072",2,1,1245,7,1,1133,"0",1,1180.02266288952,212.260371699536,1
"1073",2,5,1246,7,1,1726,"0",1,1553.66111111111,338.530046458668,1
"1074",2,4,1247,7,1,1625,"0",1,1636.67397260274,342.429298881976,0.3
"1075",2,3,1248,7,1,1548,"0",1,1688.56983240223,365.546472286483,1
"1076",2,1,1249,7,1,1133,"0",1,1180.02266288952,212.260371699536,1
"1077",2,3,1250,7,1,1268,"0",1,1688.56983240223,365.546472286483,0.3
"1078",2,4,1251,7,1,1603,"0",1,1636.67397260274,342.429298881976,0.3
"1079",2,5,1252,7,1,1146,"0",1,1553.66111111111,338.530046458668,1
"1080",2,4,1253,7,1,1683,"0",1,1636.67397260274,342.429298881976,0.3
"1081",2,4,1254,7,1,1481,"0",1,1636.67397260274,342.429298881976,1
"1082",2,1,1255,7,1,1090,"0",1,1180.02266288952,212.260371699536,1
"1083",2,4,1256,7,1,1529,"0",1,1636.67397260274,342.429298881976,0.3
"1084",2,2,1257,7,1,1162,"0",1,1474.01714285714,340.947247375963,1
"1085",2,2,1259,7,1,1190,"0",1,1474.01714285714,340.947247375963,0.3
"1086",2,2,1260,7,1,1451,"0",1,1474.01714285714,340.947247375963,0.3
"1087",2,2,1261,7,1,1178,"0",1,1474.01714285714,340.947247375963,1
"1088",2,3,1262,7,1,1406,"0",1,1688.56983240223,365.546472286483,0.3
"1089",2,3,1263,7,1,1548,"0",1,1688.56983240223,365.546472286483,0.3
"1090",2,3,1264,7,1,1716,"0",1,1688.56983240223,365.546472286483,1
"1091",2,4,1265,7,1,1919,"0",1,1636.67397260274,342.429298881976,0.3
"1092",2,5,1266,7,1,1524,"0",1,1553.66111111111,338.530046458668,0.3
"1093",2,2,1267,7,1,1334,"0",1,1474.01714285714,340.947247375963,1
"1094",2,2,1268,7,1,1498,"0",1,1474.01714285714,340.947247375963,1
"1095",2,5,1269,7,1,2103,"0",1,1553.66111111111,338.530046458668,1
"1096",2,1,1270,7,1,1247,"0",1,1180.02266288952,212.260371699536,1
"1097",2,4,1271,7,1,1566,"0",1,1636.67397260274,342.429298881976,0.3
"1098",2,1,1272,7,1,1146,"0",1,1180.02266288952,212.260371699536,1
"1099",2,1,1273,7,1,1108,"0",1,1180.02266288952,212.260371699536,1
"1100",2,3,1274,7,1,1764,"0",1,1688.56983240223,365.546472286483,1
"1101",2,3,1275,7,1,1347,"0",1,1688.56983240223,365.546472286483,0.3
"1102",2,1,1276,7,1,1175,"0",1,1180.02266288952,212.260371699536,0.3
"1103",2,1,1277,7,1,1046,"0",1,1180.02266288952,212.260371699536,1
"1104",2,2,1278,7,1,1184,"0",1,1474.01714285714,340.947247375963,0.3
"1105",2,5,1279,7,1,1663,"0",1,1553.66111111111,338.530046458668,0.3
"1106",2,5,1280,7,1,1978,"0",1,1553.66111111111,338.530046458668,0.3
"1107",2,3,1282,7,1,1687,"0",1,1688.56983240223,365.546472286483,0.3
"1108",2,1,1283,7,1,1043,"0",1,1180.02266288952,212.260371699536,1
"1109",2,3,1284,7,1,2347,"0",1,1688.56983240223,365.546472286483,1
"1110",2,2,1285,7,1,1285,"0",1,1474.01714285714,340.947247375963,1
"1111",2,4,1286,7,1,1683,"0",1,1636.67397260274,342.429298881976,0.3
"1112",2,1,1287,7,1,1098,"0",1,1180.02266288952,212.260371699536,1
"1113",2,3,1288,7,1,1635,"0",1,1688.56983240223,365.546472286483,1
"1114",2,1,1289,7,1,1086,"0",1,1180.02266288952,212.260371699536,0.3
"1115",2,1,1290,7,1,1086,"0",1,1180.02266288952,212.260371699536,1
"1116",2,1,1291,7,1,1581,"0",1,1180.02266288952,212.260371699536,0.3
"1117",2,3,1292,7,1,1800,"0",1,1688.56983240223,365.546472286483,0.3
"1118",2,3,1294,7,1,1181,"0",1,1688.56983240223,365.546472286483,0.3
"1119",2,1,1295,7,1,1057,"0",1,1180.02266288952,212.260371699536,1
"1120",2,5,1296,7,1,1163,"0",1,1553.66111111111,338.530046458668,1
"1121",2,1,1297,7,1,1105,"0",1,1180.02266288952,212.260371699536,1
"1122",2,4,1298,7,1,963,"0",1,1636.67397260274,342.429298881976,1
"1123",2,4,1300,7,1,1638,"0",1,1636.67397260274,342.429298881976,0.3
"1124",2,1,1301,7,1,1182,"0",1,1180.02266288952,212.260371699536,1
"1125",2,1,1302,7,1,1374,"0",1,1180.02266288952,212.260371699536,1
"1126",2,2,1303,7,1,1498,"0",1,1474.01714285714,340.947247375963,1
"1127",2,1,1304,7,1,1133,"0",1,1180.02266288952,212.260371699536,1
"1128",2,1,1305,7,1,1057,"0",1,1180.02266288952,212.260371699536,1
"1129",2,4,1306,7,1,1985,"0",1,1636.67397260274,342.429298881976,1
"1130",2,5,1307,7,1,1176,"0",1,1553.66111111111,338.530046458668,1
"1131",2,2,1308,7,1,1605,"0",1,1474.01714285714,340.947247375963,0.3
"1132",2,3,1309,7,1,1318,"0",1,1688.56983240223,365.546472286483,0.3
"1133",2,1,1310,7,1,1345,"0",1,1180.02266288952,212.260371699536,1
"1134",2,4,1311,7,1,2164,"0",1,1636.67397260274,342.429298881976,1
"1135",2,3,1312,7,1,2192,"0",1,1688.56983240223,365.546472286483,1
"1136",2,4,1313,7,1,2164,"0",1,1636.67397260274,342.429298881976,0.3
"1137",2,2,1314,7,1,1217,"0",1,1474.01714285714,340.947247375963,0.3
"1138",2,3,1315,7,1,1353,"0",1,1688.56983240223,365.546472286483,0.3
"1139",2,5,1316,7,1,1722,"0",1,1553.66111111111,338.530046458668,0.3
"1140",2,4,1317,7,1,1546,"0",1,1636.67397260274,342.429298881976,1
"1141",2,5,1318,7,1,1280,"0",1,1553.66111111111,338.530046458668,1
"1142",2,1,1319,7,1,1106,"0",1,1180.02266288952,212.260371699536,1
"1143",2,5,1320,7,1,2096,"0",1,1553.66111111111,338.530046458668,0.3
"1144",2,5,1321,7,1,1615,"0",1,1553.66111111111,338.530046458668,0.3
"1145",2,4,1322,7,1,1494,"0",1,1636.67397260274,342.429298881976,0.3
"1146",2,4,1323,7,1,1746,"0",1,1636.67397260274,342.429298881976,1
"1147",2,4,1324,7,1,1360,"0",1,1636.67397260274,342.429298881976,1
"1148",2,2,1325,7,1,1398,"0",1,1474.01714285714,340.947247375963,0.3
"1149",2,3,1326,7,1,1925,"0",1,1688.56983240223,365.546472286483,1
"1150",2,1,1327,7,1,1247,"0",1,1180.02266288952,212.260371699536,0.3
"1151",2,2,1328,7,1,1121,"0",1,1474.01714285714,340.947247375963,0.3
"1152",2,2,1329,7,1,1178,"0",1,1474.01714285714,340.947247375963,0.3
"1153",2,4,1330,7,1,1603,"0",1,1636.67397260274,342.429298881976,0.3
"1154",2,3,1331,7,1,1764,"0",1,1688.56983240223,365.546472286483,1
"1155",2,4,1332,7,1,1864,"0",1,1636.67397260274,342.429298881976,1
"1156",2,4,1333,7,1,1667,"0",1,1636.67397260274,342.429298881976,1
"1157",2,3,1335,7,1,1675,"0",1,1688.56983240223,365.546472286483,0.3
"1158",2,1,1336,7,1,1384,"0",1,1180.02266288952,212.260371699536,0.3
"1159",2,2,1337,7,1,2052,"0",1,1474.01714285714,340.947247375963,0.3
"1160",2,5,1338,7,1,1257,"0",1,1553.66111111111,338.530046458668,1
"1161",2,4,1339,7,1,1185,"0",1,1636.67397260274,342.429298881976,0.3
"1162",2,3,1340,7,1,1877,"0",1,1688.56983240223,365.546472286483,0.3
"1163",2,3,1342,7,1,1892,"0",1,1688.56983240223,365.546472286483,0.3
"1164",2,2,1343,7,1,1699,"0",1,1474.01714285714,340.947247375963,1
"1165",2,4,1344,7,1,1929,"0",1,1636.67397260274,342.429298881976,0.3
"1166",2,2,1345,7,1,1355,"0",1,1474.01714285714,340.947247375963,1
"1167",2,2,1346,7,1,1178,"0",1,1474.01714285714,340.947247375963,0.3
"1168",2,2,1347,7,1,1453,"0",1,1474.01714285714,340.947247375963,0.3
"1169",2,1,1348,7,1,1048,"0",1,1180.02266288952,212.260371699536,0.3
"1170",2,2,1349,7,1,1287,"0",1,1474.01714285714,340.947247375963,0.3
"1171",2,3,1350,7,1,1913,"0",1,1688.56983240223,365.546472286483,1
"1172",2,4,1351,7,1,1123,"0",1,1636.67397260274,342.429298881976,0.3
"1173",2,4,1352,7,1,1667,"0",1,1636.67397260274,342.429298881976,0.3
"1174",2,2,1353,7,1,1067,"0",1,1474.01714285714,340.947247375963,1
"1175",2,4,1354,7,1,1344,"0",1,1636.67397260274,342.429298881976,0.3
"1176",2,1,1355,7,1,1243,"0",1,1180.02266288952,212.260371699536,0.3
"1177",2,3,1356,7,1,1342,"0",1,1688.56983240223,365.546472286483,0.3
"1178",2,1,1357,7,1,1086,"0",1,1180.02266288952,212.260371699536,0.3
"1179",2,4,1358,7,1,2021,"0",1,1636.67397260274,342.429298881976,1
"1180",2,1,1359,7,1,1302,"0",1,1180.02266288952,212.260371699536,0.3
"1181",2,5,1360,7,1,1139,"0",1,1553.66111111111,338.530046458668,1
"1182",2,5,1361,7,1,1285,"0",1,1553.66111111111,338.530046458668,1
"1183",2,2,1362,7,1,1395,"0",1,1474.01714285714,340.947247375963,0.3
"1184",2,3,1363,7,1,2168,"0",1,1688.56983240223,365.546472286483,1
"1185",2,5,1364,7,1,1280,"0",1,1553.66111111111,338.530046458668,0.3
"1186",2,5,1365,7,1,1428,"0",1,1553.66111111111,338.530046458668,0.3
"1187",2,2,1366,7,1,1512,"0",1,1474.01714285714,340.947247375963,0.3
"1188",2,5,1367,7,1,1280,"0",1,1553.66111111111,338.530046458668,0.3
"1189",2,4,1368,7,1,1256,"0",1,1636.67397260274,342.429298881976,0.3
"1190",2,5,1369,7,1,2065,"0",1,1553.66111111111,338.530046458668,0.3
"1191",2,5,1370,7,1,1448,"0",1,1553.66111111111,338.530046458668,0.3
"1192",2,1,1372,7,1,1092,"0",1,1180.02266288952,212.260371699536,1
"1193",2,4,1373,7,1,1985,"0",1,1636.67397260274,342.429298881976,0.3
"1194",2,1,1374,7,1,1111,"0",1,1180.02266288952,212.260371699536,1
"1195",2,3,1375,7,1,1245,"0",1,1688.56983240223,365.546472286483,1
"1196",2,3,1376,7,1,1556,"0",1,1688.56983240223,365.546472286483,1
"1197",2,5,1377,7,1,1387,"0",1,1553.66111111111,338.530046458668,1
"1198",2,2,1378,7,1,1227,"0",1,1474.01714285714,340.947247375963,0.3
"1199",2,4,1379,7,1,1863,"0",1,1636.67397260274,342.429298881976,0.3
"1200",2,4,1380,7,1,1680,"0",1,1636.67397260274,342.429298881976,0.3
"1201",2,5,1381,7,1,1384,"0",1,1553.66111111111,338.530046458668,0.3
"1202",2,3,1382,7,1,1891,"0",1,1688.56983240223,365.546472286483,0.3
"1203",2,5,1383,7,1,1139,"0",1,1553.66111111111,338.530046458668,0.3
"1204",2,4,1385,7,1,1735,"0",1,1636.67397260274,342.429298881976,1
"1205",2,3,1386,7,1,1186,"0",1,1688.56983240223,365.546472286483,0.3
"1206",2,2,1387,7,1,1512,"0",1,1474.01714285714,340.947247375963,0.3
"1207",2,4,1388,7,1,1167,"0",1,1636.67397260274,342.429298881976,1
"1208",2,2,1389,7,1,1699,"0",1,1474.01714285714,340.947247375963,0.3
"1209",2,3,1390,7,1,1913,"0",1,1688.56983240223,365.546472286483,1
"1210",2,2,1391,7,1,1517,"0",1,1474.01714285714,340.947247375963,1
"1211",2,4,1392,7,1,2007,"0",1,1636.67397260274,342.429298881976,1
"1212",2,4,1393,7,1,1974,"0",1,1636.67397260274,342.429298881976,1
"1213",2,1,1394,7,1,1115,"0",1,1180.02266288952,212.260371699536,1
"1214",2,5,1395,7,1,1457,"0",1,1553.66111111111,338.530046458668,1
"1215",2,1,1396,7,1,1148,"0",1,1180.02266288952,212.260371699536,0.3
"1216",2,5,1397,7,1,1607,"0",1,1553.66111111111,338.530046458668,1
"1217",2,1,1398,7,1,1182,"0",1,1180.02266288952,212.260371699536,0.3
"1218",2,4,1399,7,1,1503,"0",1,1636.67397260274,342.429298881976,0.3
"1219",2,2,1400,8,1,1439,"0",1,1474.01714285714,340.947247375963,0.3
"1220",2,2,1401,8,1,1321,"0",1,1474.01714285714,340.947247375963,0.3
"1221",2,4,1402,8,1,1974,"0",1,1636.67397260274,342.429298881976,0.3
"1222",2,1,1403,8,1,1164,"0",1,1180.02266288952,212.260371699536,1
"1223",2,3,1404,8,1,1245,"0",1,1688.56983240223,365.546472286483,0.3
"1224",2,3,1405,8,1,1181,"0",1,1688.56983240223,365.546472286483,0.3
"1225",2,3,1406,8,1,2267,"0",1,1688.56983240223,365.546472286483,1
"1226",2,1,1407,8,1,1085,"0",1,1180.02266288952,212.260371699536,1
"1227",2,3,1408,8,1,1292,"0",1,1688.56983240223,365.546472286483,0.3
"1228",2,1,1409,8,1,1123,"0",1,1180.02266288952,212.260371699536,0.3
"1229",2,3,1410,8,1,2267,"0",1,1688.56983240223,365.546472286483,0.3
"1230",2,3,1411,8,1,2079,"0",1,1688.56983240223,365.546472286483,0.3
"1231",2,5,1412,8,1,1457,"0",1,1553.66111111111,338.530046458668,1
"1232",2,4,1413,8,1,1506,"0",1,1636.67397260274,342.429298881976,0.3
"1233",2,3,1414,8,1,2163,"0",1,1688.56983240223,365.546472286483,1
"1234",2,3,1415,8,1,1506,"0",1,1688.56983240223,365.546472286483,0.3
"1235",2,4,1416,8,1,1506,"0",1,1636.67397260274,342.429298881976,1
"1236",2,4,1417,8,1,1863,"0",1,1636.67397260274,342.429298881976,0.3
"1237",2,2,1418,8,1,1451,"0",1,1474.01714285714,340.947247375963,1
"1238",2,1,1419,8,1,1098,"0",1,1180.02266288952,212.260371699536,0.3
"1239",2,2,1420,8,1,1067,"0",1,1474.01714285714,340.947247375963,0.3
"1240",2,1,1421,8,1,1102,"0",1,1180.02266288952,212.260371699536,1
"1241",2,4,1422,8,1,1984,"0",1,1636.67397260274,342.429298881976,0.3
"1242",2,2,1423,8,1,1327,"0",1,1474.01714285714,340.947247375963,0.3
"1243",2,4,1424,8,1,1587,"0",1,1636.67397260274,342.429298881976,0.3
"1244",2,3,1425,8,1,1391,"0",1,1688.56983240223,365.546472286483,1
"1245",2,1,1426,8,1,1133,"0",1,1180.02266288952,212.260371699536,1
"1246",2,2,1427,8,1,1393,"0",1,1474.01714285714,340.947247375963,1
"1247",2,3,1428,8,1,1708,"0",1,1688.56983240223,365.546472286483,1
"1248",2,5,1429,8,1,1257,"0",1,1553.66111111111,338.530046458668,1
"1249",2,1,1430,8,1,1057,"0",1,1180.02266288952,212.260371699536,1
"1250",2,5,1431,8,1,2103,"0",1,1553.66111111111,338.530046458668,1
"1251",2,2,1432,8,1,1512,"0",1,1474.01714285714,340.947247375963,1
"1252",2,2,1433,8,1,1764,"0",1,1474.01714285714,340.947247375963,1
"1253",2,1,1434,8,1,818,"0",1,1180.02266288952,212.260371699536,0.3
"1254",2,2,1435,8,1,1045,"0",1,1474.01714285714,340.947247375963,1
"1255",2,2,1436,8,1,1340,"0",1,1474.01714285714,340.947247375963,0.3
"1256",2,5,1437,8,1,1978,"0",1,1553.66111111111,338.530046458668,0.3
"1257",2,4,1438,8,1,1315,"0",1,1636.67397260274,342.429298881976,1
"1258",2,2,1440,8,1,1162,"0",1,1474.01714285714,340.947247375963,1
"1259",2,2,1441,8,1,1184,"0",1,1474.01714285714,340.947247375963,0.3
"1260",2,3,1442,8,1,1763,"0",1,1688.56983240223,365.546472286483,0.3
"1261",2,4,1443,8,1,1984,"0",1,1636.67397260274,342.429298881976,0.3
"1262",2,2,1444,8,1,1340,"0",1,1474.01714285714,340.947247375963,0.3
"1263",2,1,1445,8,1,1147,"0",1,1180.02266288952,212.260371699536,0.3
"1264",2,4,1446,8,1,1984,"0",1,1636.67397260274,342.429298881976,0.3
"1265",2,4,1447,8,1,1272,"0",1,1636.67397260274,342.429298881976,0.3
"1266",2,2,1448,8,1,1338,"0",1,1474.01714285714,340.947247375963,0.3
"1267",2,5,1449,8,1,1428,"0",1,1553.66111111111,338.530046458668,1
"1268",2,4,1450,8,1,2081,"0",1,1636.67397260274,342.429298881976,1
"1269",2,5,1451,8,1,1156,"0",1,1553.66111111111,338.530046458668,0.3
"1270",2,4,1452,8,1,1306,"0",1,1636.67397260274,342.429298881976,0.3
"1271",2,5,1453,8,1,1313,"0",1,1553.66111111111,338.530046458668,0.3
"1272",2,4,1454,8,1,1735,"0",1,1636.67397260274,342.429298881976,0.3
"1273",2,1,1455,8,1,818,"0",1,1180.02266288952,212.260371699536,0.3
"1274",2,1,1456,8,1,1164,"0",1,1180.02266288952,212.260371699536,1
"1275",2,1,1457,8,1,1108,"0",1,1180.02266288952,212.260371699536,1
"1276",2,3,1458,8,1,1633,"0",1,1688.56983240223,365.546472286483,1
"1277",2,4,1459,8,1,1414,"0",1,1636.67397260274,342.429298881976,1
"1278",2,2,1460,8,1,1482,"0",1,1474.01714285714,340.947247375963,0.3
"1279",2,4,1461,8,1,1984,"0",1,1636.67397260274,342.429298881976,1
"1280",2,1,1463,8,1,1057,"0",1,1180.02266288952,212.260371699536,0.3
"1281",2,2,1464,8,1,1344,"0",1,1474.01714285714,340.947247375963,1
"1282",2,2,1465,8,1,1431,"0",1,1474.01714285714,340.947247375963,0.3
"1283",2,5,1467,8,1,1603,"0",1,1553.66111111111,338.530046458668,1
"1284",2,4,1468,8,1,1286,"0",1,1636.67397260274,342.429298881976,1
"1285",2,5,1469,8,1,1533,"0",1,1553.66111111111,338.530046458668,1
"1286",2,5,1470,8,1,1413,"0",1,1553.66111111111,338.530046458668,0.3
"1287",2,5,1471,8,1,1326,"0",1,1553.66111111111,338.530046458668,1
"1288",2,4,1472,8,1,1239,"0",1,1636.67397260274,342.429298881976,1
"1289",2,5,1473,8,1,1863,"0",1,1553.66111111111,338.530046458668,1
"1290",2,5,1474,8,1,1162,"0",1,1553.66111111111,338.530046458668,1
"1291",2,5,1475,8,1,1304,"0",1,1553.66111111111,338.530046458668,0.3
"1292",2,1,1476,8,1,1016,"0",1,1180.02266288952,212.260371699536,1
"1293",2,3,1477,8,1,1635,"0",1,1688.56983240223,365.546472286483,1
"1294",2,2,1478,8,1,1829,"0",1,1474.01714285714,340.947247375963,0.3
"1295",2,3,1479,8,1,1525,"0",1,1688.56983240223,365.546472286483,1
"1296",2,2,1480,8,1,1492,"0",1,1474.01714285714,340.947247375963,1
"1297",2,5,1482,8,1,1945,"0",1,1553.66111111111,338.530046458668,0.3
"1298",2,3,1483,8,1,1318,"0",1,1688.56983240223,365.546472286483,1
"1299",2,1,1484,8,1,1182,"0",1,1180.02266288952,212.260371699536,1
"1300",2,2,1485,8,1,1287,"0",1,1474.01714285714,340.947247375963,1
"1301",2,4,1487,8,1,1352,"0",1,1636.67397260274,342.429298881976,1
"1302",2,1,1488,8,1,1163,"0",1,1180.02266288952,212.260371699536,0.3
"1303",2,5,1489,8,1,2103,"0",1,1553.66111111111,338.530046458668,1
"1304",2,1,1490,8,1,1085,"0",1,1180.02266288952,212.260371699536,1
"1305",2,5,1491,8,1,1663,"0",1,1553.66111111111,338.530046458668,1
"1306",2,4,1492,8,1,1640,"0",1,1636.67397260274,342.429298881976,0.3
"1307",2,3,1493,8,1,2267,"0",1,1688.56983240223,365.546472286483,0.3
"1308",2,3,1494,8,1,2270,"0",1,1688.56983240223,365.546472286483,1
"1309",2,1,1495,8,1,1297,"0",1,1180.02266288952,212.260371699536,1
"1310",2,5,1496,8,1,1176,"0",1,1553.66111111111,338.530046458668,0.3
"1311",2,3,1497,8,1,1464,"0",1,1688.56983240223,365.546472286483,0.3
"1312",2,1,1498,8,1,1085,"0",1,1180.02266288952,212.260371699536,0.3
"1313",2,2,1499,8,1,1193,"0",1,1474.01714285714,340.947247375963,1
"1314",2,3,1500,8,1,1987,"0",1,1688.56983240223,365.546472286483,0.3
"1315",2,4,1502,8,1,1429,"0",1,1636.67397260274,342.429298881976,0.3
"1316",2,5,1503,8,1,1402,"0",1,1553.66111111111,338.530046458668,0.3
"1317",2,2,1504,8,1,1266,"0",1,1474.01714285714,340.947247375963,1
"1318",2,4,1505,8,1,1683,"0",1,1636.67397260274,342.429298881976,0.3
"1319",2,3,1506,8,1,1892,"0",1,1688.56983240223,365.546472286483,0.3
"1320",2,1,1507,8,1,1026,"0",1,1180.02266288952,212.260371699536,1
"1321",2,2,1508,8,1,1717,"0",1,1474.01714285714,340.947247375963,1
"1322",2,3,1509,8,1,1891,"0",1,1688.56983240223,365.546472286483,0.3
"1323",2,2,1511,8,1,1193,"0",1,1474.01714285714,340.947247375963,1
"1324",2,1,1512,8,1,1243,"0",1,1180.02266288952,212.260371699536,0.3
"1325",2,4,1513,8,1,1457,"0",1,1636.67397260274,342.429298881976,1
"1326",2,5,1514,8,1,1626,"0",1,1553.66111111111,338.530046458668,0.3
"1327",2,4,1515,8,1,1457,"0",1,1636.67397260274,342.429298881976,0.3
"1328",2,2,1516,8,1,1350,"0",1,1474.01714285714,340.947247375963,0.3
"1329",2,2,1518,8,1,1184,"0",1,1474.01714285714,340.947247375963,0.3
"1330",2,4,1519,8,1,1963,"0",1,1636.67397260274,342.429298881976,1
"1331",2,5,1520,8,1,1326,"0",1,1553.66111111111,338.530046458668,1
"1332",2,3,1521,8,1,2347,"0",1,1688.56983240223,365.546472286483,1
"1333",2,4,1522,8,1,2214,"0",1,1636.67397260274,342.429298881976,0.3
"1334",2,1,1523,8,1,1076,"0",1,1180.02266288952,212.260371699536,1
"1335",2,5,1524,8,1,1259,"0",1,1553.66111111111,338.530046458668,0.3
"1336",2,2,1525,8,1,1190,"0",1,1474.01714285714,340.947247375963,0.3
"1337",2,2,1526,8,1,1408,"0",1,1474.01714285714,340.947247375963,0.3
"1338",2,5,1527,8,1,1840,"0",1,1553.66111111111,338.530046458668,1
"1339",2,4,1528,8,1,1984,"0",1,1636.67397260274,342.429298881976,1
"1340",2,1,1529,8,1,1148,"0",1,1180.02266288952,212.260371699536,0.3
"1341",2,5,1530,8,1,2065,"0",1,1553.66111111111,338.530046458668,0.3
"1342",2,1,1531,8,1,1105,"0",1,1180.02266288952,212.260371699536,1
"1343",2,2,1532,8,1,1327,"0",1,1474.01714285714,340.947247375963,1
"1344",2,2,1533,8,1,1162,"0",1,1474.01714285714,340.947247375963,0.3
"1345",2,5,1534,8,1,1387,"0",1,1553.66111111111,338.530046458668,0.3
"1346",2,2,1535,8,1,1338,"0",1,1474.01714285714,340.947247375963,1
"1347",2,3,1536,8,1,1924,"0",1,1688.56983240223,365.546472286483,0.3
"1348",2,5,1537,8,1,1806,"0",1,1553.66111111111,338.530046458668,0.3
"1349",2,2,1538,8,1,1180,"0",1,1474.01714285714,340.947247375963,0.3
"1350",2,2,1539,8,1,2096,"0",1,1474.01714285714,340.947247375963,1
"1351",2,4,1540,8,1,1587,"0",1,1636.67397260274,342.429298881976,0.3
"1352",2,5,1541,8,1,1603,"0",1,1553.66111111111,338.530046458668,0.3
"1353",2,4,1542,8,1,1444,"0",1,1636.67397260274,342.429298881976,0.3
"1354",2,4,1543,8,1,1746,"0",1,1636.67397260274,342.429298881976,1
"1355",2,2,1544,8,1,1746,"0",1,1474.01714285714,340.947247375963,0.3
"1356",2,2,1545,8,1,1127,"0",1,1474.01714285714,340.947247375963,1
"1357",2,5,1546,8,1,1362,"0",1,1553.66111111111,338.530046458668,1
"1358",2,2,1547,8,1,1184,"0",1,1474.01714285714,340.947247375963,1
"1359",2,1,1548,8,1,1581,"0",1,1180.02266288952,212.260371699536,0.3
"1360",2,2,1549,8,1,1283,"0",1,1474.01714285714,340.947247375963,1
"1361",2,4,1550,8,1,1494,"0",1,1636.67397260274,342.429298881976,0.3
"1362",2,3,1551,8,1,1726,"0",1,1688.56983240223,365.546472286483,0.3
"1363",2,4,1552,8,1,1346,"0",1,1636.67397260274,342.429298881976,1
"1364",2,4,1553,8,1,1587,"0",1,1636.67397260274,342.429298881976,0.3
"1365",2,5,1554,8,1,1298,"0",1,1553.66111111111,338.530046458668,1
"1366",2,3,1555,8,1,1402,"0",1,1688.56983240223,365.546472286483,1
"1367",2,4,1556,8,1,1974,"0",1,1636.67397260274,342.429298881976,0.3
"1368",2,4,1557,8,1,1360,"0",1,1636.67397260274,342.429298881976,1
"1369",2,5,1558,8,1,1473,"0",1,1553.66111111111,338.530046458668,0.3
"1370",2,3,1559,8,1,1927,"0",1,1688.56983240223,365.546472286483,0.3
"1371",2,1,1560,8,1,1104,"0",1,1180.02266288952,212.260371699536,0.3
"1372",2,2,1561,8,1,1408,"0",1,1474.01714285714,340.947247375963,1
"1373",2,5,1562,8,1,1384,"0",1,1553.66111111111,338.530046458668,1
"1374",2,3,1565,8,1,1525,"0",1,1688.56983240223,365.546472286483,1
"1375",2,3,1566,8,1,1406,"0",1,1688.56983240223,365.546472286483,1
"1376",2,3,1567,8,1,1726,"0",1,1688.56983240223,365.546472286483,0.3
"1377",2,5,1568,8,1,1176,"0",1,1553.66111111111,338.530046458668,0.3
"1378",2,4,1569,8,1,1204,"0",1,1636.67397260274,342.429298881976,1
"1379",2,2,1570,8,1,1764,"0",1,1474.01714285714,340.947247375963,1
"1380",2,5,1571,8,1,1840,"0",1,1553.66111111111,338.530046458668,0.3
"1381",2,2,1572,8,1,1492,"0",1,1474.01714285714,340.947247375963,1
"1382",2,2,1573,8,1,1350,"0",1,1474.01714285714,340.947247375963,0.3
"1383",2,4,1574,8,1,1919,"0",1,1636.67397260274,342.429298881976,0.3
"1384",2,5,1575,8,1,1806,"0",1,1553.66111111111,338.530046458668,1
"1385",2,5,1576,8,1,1186,"0",1,1553.66111111111,338.530046458668,1
"1386",2,3,1577,8,1,1403,"0",1,1688.56983240223,365.546472286483,0.3
"1387",2,1,1578,8,1,1345,"0",1,1180.02266288952,212.260371699536,0.3
"1388",2,1,1579,8,1,1139,"0",1,1180.02266288952,212.260371699536,1
"1389",2,3,1580,8,1,1627,"0",1,1688.56983240223,365.546472286483,0.3
"1390",2,4,1581,8,1,1123,"0",1,1636.67397260274,342.429298881976,1
"1391",2,2,1582,8,1,1764,"0",1,1474.01714285714,340.947247375963,0.3
"1392",2,4,1583,8,1,2214,"0",1,1636.67397260274,342.429298881976,0.3
"1393",2,2,1584,8,1,1086,"0",1,1474.01714285714,340.947247375963,0.3
"1394",2,2,1585,8,1,1688,"0",1,1474.01714285714,340.947247375963,1
"1395",2,5,1586,8,1,1434,"0",1,1553.66111111111,338.530046458668,0.3
"1396",2,2,1587,8,1,1162,"0",1,1474.01714285714,340.947247375963,0.3
"1397",2,4,1588,8,1,963,"0",1,1636.67397260274,342.429298881976,1
"1398",2,5,1589,8,1,1616,"0",1,1553.66111111111,338.530046458668,1
"1399",2,5,1590,8,1,1863,"0",1,1553.66111111111,338.530046458668,0.3
"1400",2,5,1591,8,1,1533,"0",1,1553.66111111111,338.530046458668,1
"1401",2,1,1592,8,1,1147,"0",1,1180.02266288952,212.260371699536,0.3
"1402",2,4,1593,8,1,1335,"0",1,1636.67397260274,342.429298881976,0.3
"1403",2,3,1594,8,1,1403,"0",1,1688.56983240223,365.546472286483,0.3
"1404",2,4,1595,8,1,1315,"0",1,1636.67397260274,342.429298881976,1
"1405",2,2,1596,8,1,1498,"0",1,1474.01714285714,340.947247375963,0.3
"1406",2,3,1597,8,1,1987,"0",1,1688.56983240223,365.546472286483,1
"1407",2,3,1598,8,1,1687,"0",1,1688.56983240223,365.546472286483,0.3
"1408",2,2,1599,8,1,1359,"0",1,1474.01714285714,340.947247375963,1
"1409",2,4,1601,9,1,1447,"0",1,1636.67397260274,342.429298881976,0.3
"1410",2,4,1602,9,1,1850,"0",1,1636.67397260274,342.429298881976,0.3
"1411",2,5,1603,9,1,1413,"0",1,1553.66111111111,338.530046458668,0.3
"1412",2,3,1604,9,1,1635,"0",1,1688.56983240223,365.546472286483,0.3
"1413",2,1,1605,9,1,1065,"0",1,1180.02266288952,212.260371699536,1
"1414",2,4,1606,9,1,1360,"0",1,1636.67397260274,342.429298881976,0.3
"1415",2,3,1607,9,1,1892,"0",1,1688.56983240223,365.546472286483,1
"1416",2,3,1608,9,1,1800,"0",1,1688.56983240223,365.546472286483,1
"1417",2,1,1609,9,1,1133,"0",1,1180.02266288952,212.260371699536,0.3
"1418",2,4,1610,9,1,1503,"0",1,1636.67397260274,342.429298881976,1
"1419",2,2,1611,9,1,1492,"0",1,1474.01714285714,340.947247375963,1
"1420",2,4,1612,9,1,1735,"0",1,1636.67397260274,342.429298881976,0.3
"1421",2,3,1613,9,1,1924,"0",1,1688.56983240223,365.546472286483,1
"1422",2,2,1614,9,1,1453,"0",1,1474.01714285714,340.947247375963,0.3
"1423",2,2,1615,9,1,1326,"0",1,1474.01714285714,340.947247375963,1
"1424",2,4,1616,9,1,1336,"0",1,1636.67397260274,342.429298881976,1
"1425",2,4,1617,9,1,1306,"0",1,1636.67397260274,342.429298881976,1
"1426",2,2,1618,9,1,1234,"0",1,1474.01714285714,340.947247375963,1
"1427",2,2,1619,9,1,1338,"0",1,1474.01714285714,340.947247375963,1
"1428",2,5,1621,9,1,1298,"0",1,1553.66111111111,338.530046458668,1
"1429",2,4,1622,9,1,1984,"0",1,1636.67397260274,342.429298881976,1
"1430",2,3,1623,9,1,1924,"0",1,1688.56983240223,365.546472286483,0.3
"1431",2,3,1624,9,1,1342,"0",1,1688.56983240223,365.546472286483,1
"1432",2,5,1625,9,1,1127,"0",1,1553.66111111111,338.530046458668,0.3
"1433",2,4,1626,9,1,1336,"0",1,1636.67397260274,342.429298881976,1
"1434",2,5,1627,9,1,1198,"0",1,1553.66111111111,338.530046458668,1
"1435",2,2,1628,9,1,1162,"0",1,1474.01714285714,340.947247375963,0.3
"1436",2,3,1629,9,1,1548,"0",1,1688.56983240223,365.546472286483,0.3
"1437",2,4,1630,9,1,1638,"0",1,1636.67397260274,342.429298881976,0.3
"1438",2,5,1631,9,1,1840,"0",1,1553.66111111111,338.530046458668,1
"1439",2,3,1632,9,1,2192,"0",1,1688.56983240223,365.546472286483,1
"1440",2,5,1633,9,1,1662,"0",1,1553.66111111111,338.530046458668,0.3
"1441",2,5,1634,9,1,1624,"0",1,1553.66111111111,338.530046458668,0.3
"1442",2,5,1635,9,1,1385,"0",1,1553.66111111111,338.530046458668,0.3
"1443",2,2,1636,9,1,1184,"0",1,1474.01714285714,340.947247375963,0.3
"1444",2,3,1637,9,1,1868,"0",1,1688.56983240223,365.546472286483,1
"1445",2,1,1639,9,1,877,"0",1,1180.02266288952,212.260371699536,1
"1446",2,5,1640,9,1,1384,"0",1,1553.66111111111,338.530046458668,0.3
"1447",2,3,1641,9,1,1189,"0",1,1688.56983240223,365.546472286483,1
"1448",2,5,1642,9,1,1385,"0",1,1553.66111111111,338.530046458668,0.3
"1449",2,5,1643,9,1,1533,"0",1,1553.66111111111,338.530046458668,1
"1450",2,4,1644,9,1,2081,"0",1,1636.67397260274,342.429298881976,1
"1451",2,1,1645,9,1,1076,"0",1,1180.02266288952,212.260371699536,1
"1452",2,4,1646,9,1,1746,"0",1,1636.67397260274,342.429298881976,1
"1453",2,1,1647,9,1,1163,"0",1,1180.02266288952,212.260371699536,1
"1454",2,4,1648,9,1,1414,"0",1,1636.67397260274,342.429298881976,0.3
"1455",2,5,1649,9,1,1280,"0",1,1553.66111111111,338.530046458668,0.3
"1456",2,5,1650,9,1,1526,"0",1,1553.66111111111,338.530046458668,1
"1457",2,4,1651,9,1,1416,"0",1,1636.67397260274,342.429298881976,1
"1458",2,1,1652,9,1,1178,"0",1,1180.02266288952,212.260371699536,1
"1459",2,5,1653,9,1,1684,"0",1,1553.66111111111,338.530046458668,0.3
"1460",2,3,1654,9,1,1627,"0",1,1688.56983240223,365.546472286483,0.3
"1461",2,5,1655,9,1,1125,"0",1,1553.66111111111,338.530046458668,0.3
"1462",2,5,1656,9,1,1454,"0",1,1553.66111111111,338.530046458668,0.3
"1463",2,3,1657,9,1,1927,"0",1,1688.56983240223,365.546472286483,0.3
"1464",2,4,1659,9,1,2021,"0",1,1636.67397260274,342.429298881976,1
"1465",2,2,1660,9,1,1398,"0",1,1474.01714285714,340.947247375963,0.3
"1466",2,4,1661,9,1,1529,"0",1,1636.67397260274,342.429298881976,0.3
"1467",2,4,1663,9,1,1929,"0",1,1636.67397260274,342.429298881976,0.3
"1468",2,1,1664,9,1,875,"0",1,1180.02266288952,212.260371699536,1
"1469",2,4,1665,9,1,1239,"0",1,1636.67397260274,342.429298881976,0.3
"1470",2,4,1666,9,1,1167,"0",1,1636.67397260274,342.429298881976,1
"1471",2,3,1667,9,1,1565,"0",1,1688.56983240223,365.546472286483,1
"1472",2,3,1668,9,1,2163,"0",1,1688.56983240223,365.546472286483,0.3
"1473",2,1,1669,9,1,1148,"0",1,1180.02266288952,212.260371699536,1
"1474",2,3,1670,9,1,2192,"0",1,1688.56983240223,365.546472286483,1
"1475",2,1,1671,9,1,1139,"0",1,1180.02266288952,212.260371699536,1
"1476",2,1,1672,9,1,1014,"0",1,1180.02266288952,212.260371699536,0.3
"1477",2,4,1673,9,1,1546,"0",1,1636.67397260274,342.429298881976,1
"1478",2,2,1674,9,1,1217,"0",1,1474.01714285714,340.947247375963,1
"1479",2,2,1675,9,1,1285,"0",1,1474.01714285714,340.947247375963,1
"1480",2,2,1676,9,1,1431,"0",1,1474.01714285714,340.947247375963,1
"1481",2,5,1677,9,1,1863,"0",1,1553.66111111111,338.530046458668,0.3
"1482",2,1,1678,9,1,1014,"0",1,1180.02266288952,212.260371699536,1
"1483",2,1,1679,9,1,1077,"0",1,1180.02266288952,212.260371699536,1
"1484",2,4,1680,9,1,1802,"0",1,1636.67397260274,342.429298881976,0.3
"1485",2,2,1682,9,1,1344,"0",1,1474.01714285714,340.947247375963,1
"1486",2,5,1683,9,1,1276,"0",1,1553.66111111111,338.530046458668,1
"1487",2,1,1686,9,1,1182,"0",1,1180.02266288952,212.260371699536,0.3
"1488",2,1,1687,9,1,1090,"0",1,1180.02266288952,212.260371699536,0.3
"1489",2,4,1688,9,1,1667,"0",1,1636.67397260274,342.429298881976,0.3
"1490",2,5,1689,9,1,1539,"0",1,1553.66111111111,338.530046458668,1
"1491",2,5,1690,9,1,1125,"0",1,1553.66111111111,338.530046458668,1
"1492",2,3,1691,9,1,1391,"0",1,1688.56983240223,365.546472286483,1
"1493",2,4,1692,9,1,1586,"0",1,1636.67397260274,342.429298881976,1
"1494",2,1,1693,9,1,1247,"0",1,1180.02266288952,212.260371699536,1
"1495",2,5,1695,9,1,1422,"0",1,1553.66111111111,338.530046458668,1
"1496",2,4,1696,9,1,1494,"0",1,1636.67397260274,342.429298881976,1
"1497",2,5,1697,9,1,1307,"0",1,1553.66111111111,338.530046458668,1
"1498",2,5,1698,9,1,1322,"0",1,1553.66111111111,338.530046458668,1
"1499",2,2,1699,9,1,1746,"0",1,1474.01714285714,340.947247375963,0.3
"1500",2,1,1700,9,1,1156,"0",1,1180.02266288952,212.260371699536,1
"1501",2,4,1701,9,1,2081,"0",1,1636.67397260274,342.429298881976,1
"1502",2,5,1702,9,1,1377,"0",1,1553.66111111111,338.530046458668,0.3
"1503",2,5,1703,9,1,1945,"0",1,1553.66111111111,338.530046458668,1
"1504",2,2,1704,9,1,1162,"0",1,1474.01714285714,340.947247375963,0.3
"1505",2,2,1705,9,1,1383,"0",1,1474.01714285714,340.947247375963,1
"1506",2,3,1706,9,1,2188,"0",1,1688.56983240223,365.546472286483,0.3
