"","sID","nFingers","trial","block","acc","rt"
"1",1,4,1,1,1,1355
"2",1,3,2,1,1,1169
"3",1,4,3,1,0,NA
"4",1,5,4,1,0,NA
"5",1,5,5,1,1,1087
"6",1,3,6,1,1,1101
"7",1,2,7,1,1,1166
"8",1,4,8,1,1,1132
"9",1,4,9,1,1,1270
"10",1,1,10,1,1,987
"11",1,1,11,1,1,1133
"12",1,3,12,1,1,1152
"13",1,3,13,1,1,1160
"14",1,4,14,1,0,NA
"15",1,1,15,1,0,NA
"16",1,5,16,1,0,NA
"17",1,5,17,1,1,1077
"18",1,5,18,1,0,NA
"19",1,3,19,1,0,NA
"20",1,5,20,1,1,1008
"21",1,4,21,1,1,1421
"22",1,3,22,1,1,1087
"23",1,2,23,1,1,1140
"24",1,3,24,1,1,1123
"25",1,2,25,1,1,1076
"26",1,4,26,1,1,1098
"27",1,5,27,1,1,2003
"28",1,2,28,1,1,1082
"29",1,5,29,1,1,1137
"30",1,5,30,1,1,1093
"31",1,1,31,1,1,1137
"32",1,5,32,1,1,1020
"33",1,4,33,1,1,1283
"34",1,2,34,1,1,1236
"35",1,3,35,1,1,1154
"36",1,5,36,1,0,NA
"37",1,4,37,1,1,1076
"38",1,2,38,1,0,NA
"39",1,1,39,1,0,NA
"40",1,2,40,1,1,1135
"41",1,1,41,1,0,NA
"42",1,4,42,1,1,1345
"43",1,3,43,1,1,1515
"44",1,2,44,1,1,1160
"45",1,2,45,1,1,1002
"46",1,3,46,1,1,1105
"47",1,2,47,1,0,NA
"48",1,1,48,1,0,NA
"49",1,5,49,1,0,NA
"50",1,2,50,1,0,NA
"51",1,2,51,1,1,1062
"52",1,2,52,1,1,1107
"53",1,4,53,1,1,1190
"54",1,1,54,1,1,1616
"55",1,2,55,1,1,1288
"56",1,1,56,1,0,NA
"57",1,5,57,1,1,1082
"58",1,5,58,1,1,1081
"59",1,3,59,1,0,NA
"60",1,2,60,1,1,1045
"61",1,1,61,1,1,1300
"62",1,2,62,1,1,1304
"63",1,1,63,1,1,948
"64",1,3,64,1,1,1304
"65",1,3,65,1,1,1074
"66",1,1,66,1,1,1095
"67",1,5,67,1,0,NA
"68",1,3,68,1,1,959
"69",1,5,69,1,1,999
"70",1,3,70,1,1,1191
"71",1,3,71,1,0,NA
"72",1,4,72,1,1,1729
"73",1,5,73,1,1,905
"74",1,2,74,1,0,NA
"75",1,2,75,1,1,1253
"76",1,5,76,1,1,1334
"77",1,2,77,1,1,1072
"78",1,2,78,1,1,1200
"79",1,3,79,1,0,NA
"80",1,1,80,1,0,NA
"81",1,5,81,1,1,1166
"82",1,1,82,1,0,NA
"83",1,5,83,1,0,NA
"84",1,3,84,1,1,1099
"85",1,1,85,1,0,NA
"86",1,3,86,1,0,NA
"87",1,4,87,1,1,844
"88",1,1,88,1,1,1485
"89",1,4,89,1,1,1512
"90",1,2,90,1,0,NA
"91",1,1,91,1,1,1384
"92",1,4,92,1,0,NA
"93",1,3,93,1,0,NA
"94",1,1,94,1,0,NA
"95",1,5,95,1,0,NA
"96",1,4,96,1,1,1359
"97",1,3,97,1,1,974
"98",1,3,98,1,1,1193
"99",1,3,99,1,1,1187
"100",1,5,100,1,0,NA
"101",1,2,101,1,0,NA
"102",1,3,102,1,1,1133
"103",1,4,103,1,1,1145
"104",1,5,104,1,1,1131
"105",1,2,105,1,1,1095
"106",1,4,106,1,1,1305
"107",1,1,107,1,1,1196
"108",1,3,108,1,1,1000
"109",1,2,109,1,1,1564
"110",1,4,110,1,1,966
"111",1,4,111,1,0,NA
"112",1,2,112,1,1,1242
"113",1,5,113,1,1,1099
"114",1,2,114,1,1,1226
"115",1,1,115,1,0,NA
"116",1,2,116,1,1,1072
"117",1,1,117,1,1,1214
"118",1,4,118,1,1,1208
"119",1,5,119,1,0,NA
"120",1,5,120,1,1,1002
"121",1,1,121,1,1,1000
"122",1,5,122,1,1,1346
"123",1,1,123,1,0,NA
"124",1,1,124,1,0,NA
"125",1,2,125,1,1,1062
"126",1,2,126,1,1,1113
"127",1,2,127,1,1,1160
"128",1,4,128,1,1,1121
"129",1,3,129,1,1,985
"130",1,1,130,1,0,NA
"131",1,1,131,1,1,986
"132",1,3,132,1,1,1206
"133",1,2,133,1,1,1216
"134",1,2,134,1,1,1366
"135",1,1,135,1,1,1276
"136",1,1,136,1,1,1122
"137",1,5,137,1,1,1064
"138",1,3,138,1,1,893
"139",1,4,139,1,1,1103
"140",1,5,140,1,1,1051
"141",1,5,141,1,1,1033
"142",1,3,142,1,1,1315
"143",1,5,143,1,0,NA
"144",1,1,144,1,1,1319
"145",1,1,145,1,1,1064
"146",1,3,146,1,1,1146
"147",1,4,147,1,1,1127
"148",1,5,148,1,1,1076
"149",1,5,149,1,0,NA
"150",1,3,150,1,0,NA
"151",1,1,151,1,1,1183
"152",1,4,152,1,1,1058
"153",1,3,153,1,1,1315
"154",1,1,154,1,0,NA
"155",1,2,155,1,1,1060
"156",1,3,156,1,1,1081
"157",1,4,157,1,0,NA
"158",1,1,158,1,0,NA
"159",1,5,159,1,1,1365
"160",1,2,160,1,1,1158
"161",1,2,161,1,1,1156
"162",1,5,162,1,0,NA
"163",1,1,163,1,1,1026
"164",1,5,164,1,1,1111
"165",1,4,165,1,0,NA
"166",1,2,166,1,0,NA
"167",1,5,167,1,0,NA
"168",1,2,168,1,1,1167
"169",1,4,169,1,1,1634
"170",1,4,170,1,1,1079
"171",1,4,171,1,1,1085
"172",1,2,172,1,1,1297
"173",1,5,173,1,1,1134
"174",1,5,174,1,1,1443
"175",1,4,175,1,1,1179
"176",1,5,176,1,1,1122
"177",1,2,177,1,1,1108
"178",1,3,178,1,1,1074
"179",1,3,179,1,1,1160
"180",1,1,180,1,0,NA
"181",1,4,181,1,1,1179
"182",1,4,182,1,1,842
"183",1,2,183,1,0,NA
"184",1,2,184,1,0,NA
"185",1,1,185,1,1,1100
"186",1,5,186,1,1,1120
"187",1,1,187,1,1,1117
"188",1,3,188,1,1,1269
"189",1,3,189,1,1,1060
"190",1,3,190,1,1,1062
"191",1,4,191,1,0,NA
"192",1,1,192,1,1,1239
"193",1,2,193,1,1,1216
"194",1,2,194,1,0,NA
"195",1,3,195,1,0,NA
"196",1,3,196,1,1,1381
"197",1,5,197,1,1,1140
"198",1,3,198,1,1,1183
"199",1,5,199,1,0,NA
"200",1,3,200,2,1,1098
"201",1,2,201,2,0,NA
"202",1,5,202,2,0,NA
"203",1,5,203,2,1,1056
"204",1,4,204,2,1,1122
"205",1,3,205,2,1,1122
"206",1,4,206,2,1,898
"207",1,3,207,2,1,1031
"208",1,1,208,2,1,1321
"209",1,5,209,2,0,NA
"210",1,1,210,2,1,1305
"211",1,5,211,2,1,1032
"212",1,1,212,2,1,1201
"213",1,5,213,2,1,1093
"214",1,3,214,2,1,1067
"215",1,4,215,2,0,NA
"216",1,1,216,2,1,1119
"217",1,2,217,2,1,1296
"218",1,5,218,2,0,NA
"219",1,3,219,2,1,1069
"220",1,5,220,2,1,846
"221",1,3,221,2,1,1058
"222",1,5,222,2,1,1160
"223",1,3,223,2,1,1301
"224",1,5,224,2,1,1085
"225",1,2,225,2,1,1182
"226",1,3,226,2,1,1198
"227",1,5,227,2,0,NA
"228",1,3,228,2,1,966
"229",1,1,229,2,0,NA
"230",1,5,230,2,1,87
"231",1,3,231,2,1,960
"232",1,4,232,2,1,1196
"233",1,4,233,2,1,1279
"234",1,1,234,2,1,1145
"235",1,4,235,2,1,1295
"236",1,2,236,2,1,1134
"237",1,4,237,2,1,1199
"238",1,3,238,2,1,1176
"239",1,2,239,2,1,1193
"240",1,3,240,2,1,1122
"241",1,4,241,2,1,1111
"242",1,1,242,2,0,NA
"243",1,2,243,2,1,1360
"244",1,1,244,2,0,NA
"245",1,4,245,2,1,1254
"246",1,4,246,2,1,998
"247",1,4,247,2,0,NA
"248",1,5,248,2,1,1172
"249",1,2,249,2,1,1144
"250",1,1,250,2,1,1314
"251",1,1,251,2,1,1137
"252",1,3,252,2,0,NA
"253",1,2,253,2,0,NA
"254",1,5,254,2,0,NA
"255",1,5,255,2,1,1174
"256",1,4,256,2,0,NA
"257",1,5,257,2,0,NA
"258",1,2,258,2,0,NA
"259",1,2,259,2,1,1214
"260",1,4,260,2,1,1075
"261",1,5,261,2,0,NA
"262",1,3,262,2,0,NA
"263",1,4,263,2,1,1052
"264",1,2,264,2,0,NA
"265",1,1,265,2,0,NA
"266",1,2,266,2,0,NA
"267",1,5,267,2,0,NA
"268",1,2,268,2,1,1041
"269",1,2,269,2,1,1229
"270",1,4,270,2,1,1074
"271",1,1,271,2,0,NA
"272",1,2,272,2,1,1172
"273",1,3,273,2,1,1482
"274",1,2,274,2,0,NA
"275",1,4,275,2,0,NA
"276",1,4,276,2,1,1224
"277",1,2,277,2,0,NA
"278",1,1,278,2,0,NA
"279",1,2,279,2,1,890
"280",1,3,280,2,1,1177
"281",1,2,281,2,1,1083
"282",1,1,282,2,1,1161
"283",1,2,283,2,1,963
"284",1,5,284,2,1,1202
"285",1,5,285,2,1,1134
"286",1,3,286,2,1,1123
"287",1,3,287,2,0,NA
"288",1,4,288,2,0,NA
"289",1,1,289,2,1,1099
"290",1,3,290,2,1,1302
"291",1,3,291,2,0,NA
"292",1,5,292,2,1,1135
"293",1,1,293,2,0,NA
"294",1,2,294,2,1,1057
"295",1,1,295,2,0,NA
"296",1,5,296,2,0,NA
"297",1,1,297,2,0,NA
"298",1,5,298,2,1,1245
"299",1,4,299,2,1,1142
"300",1,5,300,2,1,1077
"301",1,4,301,2,1,1240
"302",1,5,302,2,0,NA
"303",1,1,303,2,1,1246
"304",1,4,304,2,1,1106
"305",1,4,305,2,1,1192
"306",1,4,306,2,1,1196
"307",1,1,307,2,1,1180
"308",1,3,308,2,1,964
"309",1,1,309,2,1,1156
"310",1,4,310,2,1,1042
"311",1,5,311,2,1,1015
"312",1,3,312,2,1,1036
"313",1,4,313,2,1,704
"314",1,3,314,2,1,923
"315",1,5,315,2,0,NA
"316",1,2,316,2,0,NA
"317",1,3,317,2,1,1043
"318",1,2,318,2,0,NA
"319",1,3,319,2,1,1020
"320",1,4,320,2,0,NA
"321",1,4,321,2,1,768
"322",1,2,322,2,0,NA
"323",1,3,323,2,0,NA
"324",1,1,324,2,1,1024
"325",1,4,325,2,1,1376
"326",1,1,326,2,0,NA
"327",1,4,327,2,0,NA
"328",1,3,328,2,1,1051
"329",1,1,329,2,1,1023
"330",1,2,330,2,1,1041
"331",1,1,331,2,1,1069
"332",1,1,332,2,1,1109
"333",1,4,333,2,0,NA
"334",1,5,334,2,0,NA
"335",1,4,335,2,0,NA
"336",1,4,336,2,1,862
"337",1,3,337,2,0,NA
"338",1,3,338,2,1,1086
"339",1,1,339,2,1,1219
"340",1,5,340,2,1,1125
"341",1,4,341,2,0,NA
"342",1,1,342,2,1,1186
"343",1,1,343,2,0,NA
"344",1,1,344,2,1,1062
"345",1,3,345,2,1,1136
"346",1,4,346,2,1,866
"347",1,1,347,2,0,NA
"348",1,1,348,2,1,1044
"349",1,5,349,2,1,882
"350",1,1,350,2,1,1142
"351",1,5,351,2,0,NA
"352",1,2,352,2,1,290
"353",1,2,353,2,0,997
"354",1,5,354,2,1,1055
"355",1,2,355,2,1,1755
"356",1,4,356,2,1,1897
"357",1,2,357,2,1,1287
"358",1,1,358,2,1,1258
"359",1,1,359,2,1,1270
"360",1,5,360,2,1,1089
"361",1,1,361,2,1,1578
"362",1,5,362,2,0,NA
"363",1,4,363,2,0,NA
"364",1,4,364,2,1,1202
"365",1,5,365,2,1,1204
"366",1,1,366,2,0,NA
"367",1,4,367,2,1,1135
"368",1,4,368,2,1,1050
"369",1,3,369,2,0,NA
"370",1,4,370,2,0,NA
"371",1,1,371,2,0,NA
"372",1,2,372,2,1,1241
"373",1,3,373,2,1,1062
"374",1,2,374,2,1,1517
"375",1,3,375,2,1,1213
"376",1,3,376,2,1,1180
"377",1,3,377,2,1,1257
"378",1,3,378,2,1,1160
"379",1,5,379,2,0,NA
"380",1,1,380,2,0,NA
"381",1,3,381,2,1,1003
"382",1,2,382,2,1,993
"383",1,2,383,2,1,1172
"384",1,1,384,2,0,NA
"385",1,4,385,2,1,1644
"386",1,4,386,2,1,1536
"387",1,1,387,2,0,NA
"388",1,4,388,2,0,NA
"389",1,5,389,2,1,1345
"390",1,2,390,2,1,1015
"391",1,1,391,2,1,1222
"392",1,3,392,2,1,1029
"393",1,5,393,2,1,916
"394",1,3,394,2,1,907
"395",1,2,395,2,1,1301
"396",1,4,396,2,1,1086
"397",1,4,397,2,1,1337
"398",1,4,398,2,0,NA
"399",1,2,399,2,0,NA
"400",1,2,400,3,1,1216
"401",2,5,1,1,1,1641
"402",2,5,2,1,1,1125
"403",2,3,3,1,1,1892
"404",2,2,4,1,1,1746
"405",2,3,5,1,1,1627
"406",2,1,6,1,1,1182
"407",2,4,7,1,1,1239
"408",2,2,8,1,1,1465
"409",2,3,9,1,1,1806
"410",2,3,10,1,1,1527
"411",2,3,11,1,1,2423
"412",2,3,12,1,1,1506
"413",2,3,13,1,1,1406
"414",2,2,14,1,1,1344
"415",2,2,15,1,1,1383
"416",2,2,16,1,1,1045
"417",2,2,17,1,1,1318
"418",2,3,18,1,1,1213
"419",2,1,19,1,1,1077
"420",2,1,20,1,1,1447
"421",2,1,21,1,1,1100
"422",2,1,22,1,1,1092
"423",2,5,23,1,1,1384
"424",2,2,24,1,1,1287
"425",2,1,25,1,1,963
"426",2,2,26,1,1,2201
"427",2,1,27,1,1,1596
"428",2,1,28,1,1,1194
"429",2,3,29,1,1,2227
"430",2,5,30,1,1,1607
"431",2,1,31,1,1,1182
"432",2,5,32,1,1,1662
"433",2,2,33,1,1,1843
"434",2,1,34,1,1,1200
"435",2,2,35,1,1,1283
"436",2,1,36,1,1,1175
"437",2,1,37,1,1,818
"438",2,2,38,1,1,1451
"439",2,1,39,1,1,1302
"440",2,5,40,1,1,1434
"441",2,4,41,1,1,1336
"442",2,5,42,1,1,1276
"443",2,4,43,1,1,1603
"444",2,1,44,1,1,1225
"445",2,3,45,1,1,1877
"446",2,5,46,1,1,1603
"447",2,1,47,1,1,1076
"448",2,1,48,1,1,1111
"449",2,2,49,1,1,1843
"450",2,4,50,1,1,1863
"451",2,1,51,1,1,1200
"452",2,3,52,1,1,2347
"453",2,4,53,1,1,1566
"454",2,1,54,1,1,1225
"455",2,3,55,1,1,1490
"456",2,1,56,1,1,1182
"457",2,4,57,1,1,1185
"458",2,5,58,1,1,1385
"459",2,5,59,1,1,1806
"460",2,4,60,1,1,1437
"461",2,1,61,1,1,1214
"462",2,2,62,1,1,1162
"463",2,5,63,1,1,1684
"464",2,4,64,1,1,1735
"465",2,2,65,1,1,1431
"466",2,4,66,1,1,1182
"467",2,2,67,1,1,1359
"468",2,2,68,1,1,1325
"469",2,2,69,1,1,1767
"470",2,2,70,1,1,1266
"471",2,4,71,1,1,1414
"472",2,3,72,1,1,1406
"473",2,2,73,1,1,1344
"474",2,3,74,1,1,1925
"475",2,2,75,1,1,1843
"476",2,3,76,1,1,1464
"477",2,5,77,1,1,1322
"478",2,3,78,1,1,1506
"479",2,3,79,1,1,1862
"480",2,5,80,1,1,1624
"481",2,3,81,1,1,1378
"482",2,2,82,1,1,1327
"483",2,5,83,1,1,1902
"484",2,5,84,1,1,1422
"485",2,1,85,1,1,1165
"486",2,4,86,1,1,1603
"487",2,3,87,1,1,1806
"488",2,5,88,1,1,1616
"489",2,3,89,1,1,1873
"490",2,1,90,1,1,955
"491",2,4,91,1,1,1204
"492",2,2,92,1,1,1482
"493",2,3,93,1,1,2347
"494",2,2,94,1,1,1285
"495",2,3,95,1,1,1927
"496",2,1,96,1,1,1175
"497",2,5,97,1,1,1402
"498",2,2,98,1,1,1517
"499",2,2,99,1,1,1717
"500",2,2,100,1,1,1398
"501",2,1,101,1,1,1214
"502",2,1,102,1,1,1076
"503",2,1,103,1,1,1126
"504",2,3,104,1,1,1490
"505",2,2,105,1,1,1801
"506",2,1,106,1,1,1596
"507",2,1,107,1,1,1243
"508",2,1,108,1,1,1065
"509",2,3,109,1,1,1213
"510",2,3,110,1,1,1506
"511",2,2,111,1,1,1327
"512",2,2,112,1,1,1843
"513",2,3,113,1,1,1763
"514",2,5,114,1,1,1384
"515",2,5,115,1,1,1259
"516",2,4,116,1,1,1873
"517",2,3,117,1,1,2423
"518",2,4,118,1,1,1344
"519",2,4,119,1,1,1414
"520",2,2,120,1,1,1717
"521",2,3,121,1,1,2079
"522",2,5,122,1,1,1162
"523",2,5,123,1,1,1978
"524",2,1,124,1,1,1302
"525",2,4,125,1,1,2639
"526",2,5,126,1,1,1533
"527",2,5,127,1,1,1304
"528",2,2,128,1,1,1227
"529",2,5,129,1,1,1526
"530",2,4,130,1,1,1447
"531",2,4,131,1,1,1574
"532",2,2,132,1,1,1764
"533",2,2,133,1,1,1408
"534",2,1,134,1,1,1090
"535",2,5,135,1,1,1646
"536",2,2,136,1,1,1829
"537",2,3,137,1,1,1268
"538",2,2,138,1,1,1227
"539",2,2,139,1,1,1749
"540",2,4,140,1,1,1615
"541",2,1,141,1,1,1581
"542",2,5,142,1,1,2607
"543",2,1,143,1,1,1795
"544",2,3,144,1,1,1531
"545",2,3,145,1,1,1310
"546",2,4,146,1,1,1239
"547",2,5,147,1,1,1616
"548",2,3,148,1,1,2188
"549",2,4,149,1,1,963
"550",2,2,150,1,1,2806
"551",2,2,151,1,1,1152
"552",2,1,152,1,1,1527
"553",2,3,153,1,1,1527
"554",2,3,154,1,1,1490
"555",2,4,155,1,1,1574
"556",2,2,156,1,1,1605
"557",2,5,157,1,1,1863
"558",2,1,158,1,1,963
"559",2,2,159,1,1,1829
"560",2,5,160,1,1,2607
"561",2,2,161,1,1,1359
"562",2,2,162,1,1,2052
"563",2,3,163,1,1,1714
"564",2,4,164,1,1,1481
"565",2,5,165,1,1,1806
"566",2,1,166,1,1,1105
"567",2,1,167,1,1,1103
"568",2,1,168,1,1,1133
"569",2,2,169,1,1,1383
"570",2,1,170,1,1,1109
"571",2,4,171,1,1,2105
"572",2,1,172,1,1,1194
"573",2,2,173,1,1,1338
"574",2,3,174,1,1,2345
"575",2,4,175,1,1,1429
"576",2,5,176,1,1,1146
"577",2,4,177,1,1,1586
"578",2,5,178,1,1,1313
"579",2,1,179,1,1,1156
"580",2,5,180,1,1,1902
"581",2,2,181,1,1,2185
"582",2,2,182,1,1,1321
"583",2,1,183,1,1,1043
"584",2,5,184,1,1,1646
"585",2,5,185,1,1,1524
"586",2,3,186,1,1,2168
"587",2,5,187,1,1,1457
"588",2,4,188,1,1,1584
"589",2,3,189,1,1,1495
"590",2,1,190,1,1,1374
"591",2,2,191,1,1,1162
"592",2,5,192,1,1,1682
"593",2,4,193,1,1,1574
"594",2,3,194,1,1,2423
"595",2,2,195,1,1,1338
"596",2,1,196,1,1,1068
"597",2,2,197,1,1,1067
"598",2,3,198,1,1,1800
"599",2,2,199,1,1,1193
"600",2,5,200,2,1,1413
"601",2,3,201,2,1,1987
"602",2,4,202,2,1,1546
"603",2,1,203,2,1,1085
"604",2,1,204,2,1,1046
"605",2,5,205,2,1,1945
"606",2,3,206,2,1,1687
"607",2,5,207,2,1,1259
"608",2,1,208,2,1,1297
"609",2,3,209,2,1,2163
"610",2,4,210,2,1,1286
"611",2,2,211,2,1,1127
"612",2,1,212,2,1,1076
"613",2,4,213,2,1,1640
"614",2,1,214,2,1,2202
"615",2,2,215,2,1,1527
"616",2,2,216,2,1,1483
"617",2,1,217,2,1,1147
"618",2,3,218,2,1,1877
"619",2,2,219,2,1,1079
"620",2,1,220,2,1,1111
"621",2,5,221,2,1,1623
"622",2,1,222,2,1,1146
"623",2,4,223,2,0,NA
"624",2,1,224,2,1,1086
"625",2,4,225,2,1,1620
"626",2,4,226,2,1,1457
"627",2,2,227,2,1,1184
"628",2,3,228,2,1,2444
"629",2,5,229,2,1,1539
"630",2,3,230,2,1,2192
"631",2,4,231,2,1,963
"632",2,4,232,2,1,2523
"633",2,3,233,2,1,1378
"634",2,5,234,2,1,1236
"635",2,1,235,2,1,1092
"636",2,3,236,2,1,2054
"637",2,4,237,2,1,1864
"638",2,4,238,2,1,2164
"639",2,5,239,2,1,1257
"640",2,5,240,2,1,1362
"641",2,2,241,2,1,1801
"642",2,4,242,2,1,1335
"643",2,1,243,2,1,1092
"644",2,4,244,2,1,1475
"645",2,5,245,2,1,1457
"646",2,4,246,2,1,1346
"647",2,2,247,2,1,1121
"648",2,2,248,2,1,2049
"649",2,4,249,2,1,1546
"650",2,4,250,2,1,2442
"651",2,1,251,2,1,1200
"652",2,1,252,2,1,1065
"653",2,1,253,2,1,1206
"654",2,2,254,2,1,1234
"655",2,2,255,2,1,1283
"656",2,1,256,2,1,1182
"657",2,5,257,2,1,2025
"658",2,3,258,2,1,1157
"659",2,4,259,2,1,1306
"660",2,4,260,2,1,2442
"661",2,1,261,2,1,1115
"662",2,2,262,2,1,2806
"663",2,4,263,2,1,1272
"664",2,4,264,2,1,1237
"665",2,3,265,2,1,1725
"666",2,3,266,2,1,1189
"667",2,5,267,2,1,2345
"668",2,3,268,2,1,2227
"669",2,4,269,2,1,2442
"670",2,4,270,2,1,2021
"671",2,1,271,2,1,1374
"672",2,5,272,2,1,1663
"673",2,1,273,2,1,1111
"674",2,1,274,2,1,1108
"675",2,4,275,2,1,1329
"676",2,3,276,2,1,1241
"677",2,4,277,2,1,1695
"678",2,5,278,2,1,1236
"679",2,1,279,2,1,1016
"680",2,3,280,2,1,1868
"681",2,4,281,2,1,1640
"682",2,2,282,2,1,1162
"683",2,2,283,2,1,1227
"684",2,3,284,2,1,1800
"685",2,2,285,2,1,1266
"686",2,3,286,2,1,1274
"687",2,2,287,2,1,1746
"688",2,5,288,2,1,2103
"689",2,5,289,2,1,1840
"690",2,3,290,2,1,1342
"691",2,3,291,2,1,1290
"692",2,3,292,2,1,2054
"693",2,5,293,2,1,1473
"694",2,4,294,2,1,1167
"695",2,1,295,2,1,1065
"696",2,4,296,2,1,1974
"697",2,2,297,2,1,1384
"698",2,4,298,2,1,1475
"699",2,2,299,2,1,1439
"700",2,5,300,2,1,1626
"701",2,1,301,2,1,1164
"702",2,5,302,2,1,2604
"703",2,4,303,2,1,1984
"704",2,3,304,2,1,1290
"705",2,2,305,2,1,1483
"706",2,4,306,2,1,1984
"707",2,2,307,2,1,1408
"708",2,3,308,2,1,2054
"709",2,5,309,2,1,1616
"710",2,4,310,2,1,1802
"711",2,3,311,2,1,2444
"712",2,5,312,2,1,1362
"713",2,5,313,2,1,1587
"714",2,1,314,2,1,1527
"715",2,5,315,2,1,1722
"716",2,2,316,2,1,1184
"717",2,3,317,2,1,2163
"718",2,5,318,2,1,2607
"719",2,5,319,2,1,2363
"720",2,4,320,2,1,1344
"721",2,5,321,2,1,1199
"722",2,3,322,2,1,1726
"723",2,5,323,2,1,1285
"724",2,1,324,2,1,1165
"725",2,3,325,2,1,1457
"726",2,4,326,2,1,1864
"727",2,2,327,2,1,1224
"728",2,2,328,2,1,1180
"729",2,3,329,2,1,2444
"730",2,5,330,2,1,1428
"731",2,4,331,2,1,1360
"732",2,2,332,2,1,1325
"733",2,4,333,2,1,1329
"734",2,3,334,2,1,1763
"735",2,1,335,2,1,1197
"736",2,2,336,2,1,1688
"737",2,3,337,2,1,1523
"738",2,5,338,2,1,1385
"739",2,1,339,2,1,1085
"740",2,1,340,2,1,963
"741",2,2,341,2,1,1764
"742",2,1,342,2,1,1109
"743",2,2,343,2,1,2049
"744",2,5,344,2,1,1199
"745",2,2,345,2,1,1344
"746",2,1,346,2,1,1123
"747",2,5,347,2,1,1615
"748",2,3,348,2,1,1310
"749",2,5,349,2,1,1422
"750",2,2,350,2,1,2806
"751",2,5,351,2,1,1539
"752",2,3,352,2,1,2726
"753",2,1,353,2,1,1014
"754",2,5,354,2,1,1646
"755",2,4,355,2,1,1204
"756",2,1,356,2,1,1297
"757",2,4,357,2,1,2164
"758",2,3,358,2,1,1402
"759",2,3,359,2,1,1927
"760",2,4,360,2,1,2105
"761",2,3,361,2,1,1308
"762",2,1,362,2,1,1164
"763",2,2,363,2,1,1512
"764",2,5,364,2,1,1139
"765",2,5,365,2,1,1377
"766",2,5,366,2,1,1617
"767",2,1,367,2,1,1139
"768",2,1,368,2,1,1225
"769",2,2,369,2,1,1121
"770",2,3,370,2,1,1308
"771",2,2,371,2,1,1451
"772",2,1,372,2,1,1225
"773",2,1,373,2,1,1108
"774",2,1,374,2,1,1384
"775",2,1,375,2,1,963
"776",2,4,376,2,1,963
"777",2,1,377,2,1,1178
"778",2,4,378,2,1,1414
"779",2,4,379,2,1,1638
"780",2,3,380,2,1,1245
"781",2,2,381,2,1,1465
"782",2,3,382,2,1,1525
"783",2,5,383,2,1,1829
"784",2,1,384,2,1,1109
"785",2,3,385,2,1,1514
"786",2,3,386,2,1,1495
"787",2,5,387,2,1,1285
"788",2,4,388,2,1,1286
"789",2,5,389,2,1,1682
"790",2,3,390,2,1,1635
"791",2,5,391,2,1,1257
"792",2,2,392,2,1,1180
"793",2,1,393,2,1,1156
"794",2,3,394,2,1,2444
"795",2,3,395,2,1,1806
"796",2,5,396,2,1,1146
"797",2,5,397,2,1,1829
"798",2,2,398,2,1,1355
"799",2,1,399,2,1,1297
"800",2,5,400,3,1,1829
"801",2,4,401,3,1,1640
"802",2,2,402,3,1,1482
"803",2,5,403,3,1,2096
"804",2,4,404,3,1,1444
"805",2,4,405,3,1,1625
"806",2,1,406,3,1,1016
"807",2,4,407,3,1,1185
"808",2,1,408,3,1,1105
"809",2,4,409,3,1,1503
"810",2,3,410,3,1,1245
"811",2,3,411,3,1,1763
"812",2,2,412,3,1,1605
"813",2,3,413,3,1,1464
"814",2,3,414,3,1,1716
"815",2,2,415,3,1,1483
"816",2,3,416,3,1,1987
"817",2,1,417,3,1,2202
"818",2,1,418,3,1,1043
"819",2,1,419,3,1,1163
"820",2,1,420,3,1,1447
"821",2,1,421,3,1,1126
"822",2,4,422,3,1,1615
"823",2,1,423,3,1,875
"824",2,4,424,3,1,1850
"825",2,1,425,3,1,1214
"826",2,5,426,3,1,1829
"827",2,1,427,3,1,1118
"828",2,3,428,3,1,2456
"829",2,4,429,3,1,1185
"830",2,3,430,3,1,1457
"831",2,1,431,3,1,1057
"832",2,4,432,3,1,1620
"833",2,3,433,3,1,1708
"834",2,1,434,3,1,1106
"835",2,2,435,3,1,1517
"836",2,1,436,3,1,1100
"837",2,5,437,3,1,1280
"838",2,4,438,3,1,2523
"839",2,2,439,3,1,1492
"840",2,1,440,3,1,1026
"841",2,2,441,3,1,2473
"842",2,5,442,3,1,1624
"843",2,3,443,3,1,1490
"844",2,5,444,3,1,1617
"845",2,4,445,3,1,1566
"846",2,2,446,3,1,1344
"847",2,1,447,3,1,1106
"848",2,5,448,3,1,1646
"849",2,5,449,3,1,1127
"850",2,4,450,3,1,1850
"851",2,1,451,3,1,1164
"852",2,3,452,3,1,2168
"853",2,2,453,3,1,1571
"854",2,3,454,3,1,1565
"855",2,5,455,3,1,1457
"856",2,5,456,3,1,1413
"857",2,4,457,3,1,1584
"858",2,1,458,3,1,1065
"859",2,1,459,3,1,1367
"860",2,5,460,3,1,1646
"861",2,5,461,3,1,1840
"862",2,5,462,3,1,1345
"863",2,3,463,3,1,1318
"864",2,5,464,3,1,1176
"865",2,1,465,3,1,1945
"866",2,5,466,3,1,1186
"867",2,3,467,3,1,1566
"868",2,4,468,3,1,2544
"869",2,2,469,3,1,1227
"870",2,5,470,3,1,1641
"871",2,1,471,3,1,1126
"872",2,5,472,3,1,1422
"873",2,3,473,3,1,2726
"874",2,3,474,3,1,1927
"875",2,4,475,3,1,1850
"876",2,5,476,3,1,1454
"877",2,2,477,3,1,2096
"878",2,5,478,3,1,1313
"879",2,5,479,3,1,2025
"880",2,3,480,3,1,1181
"881",2,4,481,3,1,1546
"882",2,5,482,3,1,1615
"883",2,1,483,3,1,955
"884",2,2,484,3,1,1180
"885",2,5,485,3,1,1726
"886",2,4,486,3,0,NA
"887",2,4,487,3,1,1615
"888",2,2,488,3,1,1439
"889",2,1,489,3,1,1126
"890",2,1,490,3,1,1065
"891",2,5,491,3,1,1384
"892",2,3,492,3,1,1925
"893",2,1,493,3,1,1194
"894",2,3,494,3,1,2042
"895",2,3,495,3,1,1633
"896",2,2,496,3,1,1482
"897",2,4,497,3,1,2544
"898",2,4,498,3,1,2639
"899",2,1,499,3,1,1197
"900",2,5,500,3,1,1236
"901",2,3,501,3,1,1925
"902",2,4,502,3,1,1475
"903",2,3,503,3,1,1403
"904",2,1,504,3,1,1194
"905",2,1,505,3,1,1200
"906",2,1,506,3,1,1133
"907",2,5,507,3,1,1613
"908",2,5,508,3,1,1662
"909",2,4,509,3,1,1546
"910",2,4,510,3,1,1352
"911",2,1,511,3,1,1178
"912",2,3,512,3,1,1189
"913",2,1,513,3,1,818
"914",2,4,514,3,1,1802
"915",2,3,515,3,1,1556
"916",2,2,516,3,1,1384
"917",2,4,517,3,1,1506
"918",2,3,518,3,1,1726
"919",2,3,519,3,1,1725
"920",2,5,520,3,1,1434
"921",2,1,521,3,1,1016
"922",2,4,522,3,1,1344
"923",2,2,523,3,1,1482
"924",2,1,524,3,1,1103
"925",2,1,525,3,1,1123
"926",2,5,526,3,1,1587
"927",2,5,527,3,1,1623
"928",2,3,528,3,1,2054
"929",2,2,529,3,1,2264
"930",2,3,530,3,1,1437
"931",2,1,531,3,1,1146
"932",2,4,532,3,1,1204
"933",2,1,533,3,1,1214
"934",2,1,534,3,1,1090
"935",2,2,535,3,1,1325
"936",2,4,536,3,1,1873
"937",2,5,537,3,1,1623
"938",2,5,538,3,1,1307
"939",2,5,539,3,1,1526
"940",2,3,540,3,1,1764
"941",2,5,541,3,1,1524
"942",2,4,542,3,1,1620
"943",2,3,543,3,1,1290
"944",2,5,544,3,1,2103
"945",2,3,545,3,1,1675
"946",2,4,546,3,1,1667
"947",2,3,547,3,1,1402
"948",2,4,548,3,1,1638
"949",2,1,549,3,1,1111
"950",2,5,550,3,1,1539
"951",2,4,551,3,1,1873
"952",2,3,552,3,1,1157
"953",2,4,553,3,0,NA
"954",2,1,554,3,1,1098
"955",2,1,555,3,1,1164
"956",2,2,556,3,1,2264
"957",2,5,557,3,1,2127
"958",2,1,558,3,1,1374
"959",2,3,559,3,1,1347
"960",2,5,560,3,1,1146
"961",2,3,561,3,1,1566
"962",2,5,562,3,1,1163
"963",2,2,563,3,1,1492
"964",2,5,564,3,1,1979
"965",2,1,565,3,1,1147
"966",2,1,566,3,1,1124
"967",2,3,567,3,1,1318
"968",2,4,568,3,1,1416
"969",2,5,569,3,1,1448
"970",2,1,570,3,1,1225
"971",2,2,571,3,1,1571
"972",2,2,572,3,1,1193
"973",2,1,573,3,1,1048
"974",2,2,574,3,1,1178
"975",2,2,575,3,1,1605
"976",2,5,576,3,1,1304
"977",2,3,577,3,1,1403
"978",2,3,578,3,1,1189
"979",2,4,579,3,1,1802
"980",2,2,580,3,1,1190
"981",2,4,581,3,1,1963
"982",2,5,582,3,1,1613
"983",2,5,583,3,1,1524
"984",2,2,584,3,1,1344
"985",2,4,585,3,1,1584
"986",2,5,586,3,1,1236
"987",2,1,587,3,1,1108
"988",2,5,588,3,1,1641
"989",2,1,589,3,1,1175
"990",2,3,590,3,1,2168
"991",2,4,591,3,1,1448
"992",2,2,592,3,1,1350
"993",2,2,593,3,1,1451
"994",2,5,594,3,1,1623
"995",2,4,595,3,1,1352
"996",2,5,596,3,1,1641
"997",2,3,597,3,1,1186
"998",2,3,598,3,1,1873
"999",2,5,599,3,1,2127
"1000",2,3,600,4,1,1556
"1001",2,4,601,4,1,1694
"1002",2,3,602,4,1,1274
"1003",2,5,603,4,1,1726
"1004",2,2,604,4,1,1767
"1005",2,5,605,4,1,1726
"1006",2,1,606,4,1,1175
"1007",2,2,607,4,1,1517
"1008",2,5,608,4,1,1377
"1009",2,1,609,4,1,877
"1010",2,1,610,4,1,1795
"1011",2,5,611,4,1,1662
"1012",2,5,612,4,1,1533
"1013",2,3,613,4,1,1342
"1014",2,5,614,4,1,1617
"1015",2,3,615,4,1,1924
"1016",2,1,616,4,1,1102
"1017",2,5,617,4,1,1345
"1018",2,4,618,4,1,1584
"1019",2,5,619,4,1,1626
"1020",2,5,620,4,1,1186
"1021",2,2,621,4,1,1395
"1022",2,2,622,4,1,1045
"1023",2,1,623,4,1,2202
"1024",2,5,624,4,1,1641
"1025",2,1,625,4,1,1046
"1026",2,4,626,4,1,1615
"1027",2,1,627,4,1,1243
"1028",2,4,628,4,1,1680
"1029",2,4,629,4,1,1272
"1030",2,3,630,4,1,1714
"1031",2,4,631,4,1,1503
"1032",2,3,632,4,1,1181
"1033",2,5,633,4,1,1979
"1034",2,3,634,4,1,1868
"1035",2,4,635,4,1,1475
"1036",2,1,636,4,1,1945
"1037",2,1,637,4,1,1165
"1038",2,4,638,4,1,1494
"1039",2,4,639,4,1,1864
"1040",2,1,640,4,1,1175
"1041",2,1,641,4,1,1194
"1042",2,2,642,4,1,1344
"1043",2,5,643,4,1,1684
"1044",2,2,644,4,1,1318
"1045",2,5,645,4,1,1979
"1046",2,1,646,4,1,1148
"1047",2,4,647,4,1,1315
"1048",2,4,648,4,1,1256
"1049",2,3,649,4,1,1531
"1050",2,1,650,4,1,1090
"1051",2,3,651,4,1,1241
"1052",2,3,652,4,1,1868
"1053",2,2,653,4,1,1527
"1054",2,4,654,4,1,1429
"1055",2,1,655,4,1,818
"1056",2,3,656,4,1,1353
"1057",2,4,657,4,1,2523
"1058",2,5,658,4,1,1624
"1059",2,1,659,4,1,1026
"1060",2,3,660,4,1,1189
"1061",2,1,661,4,1,1596
"1062",2,3,662,4,1,1406
"1063",2,5,663,4,1,1945
"1064",2,3,664,4,1,1627
"1065",2,1,665,4,1,1065
"1066",2,3,666,4,1,1764
"1067",2,2,667,4,1,1285
"1068",2,3,668,4,1,1716
"1069",2,3,669,4,1,1457
"1070",2,2,670,4,1,1498
"1071",2,2,671,4,1,1801
"1072",2,5,672,4,1,1285
"1073",2,3,673,4,1,1213
"1074",2,2,674,4,1,1527
"1075",2,1,675,4,1,1104
"1076",2,3,676,4,1,1363
"1077",2,2,677,4,1,2473
"1078",2,3,678,4,1,1353
"1079",2,2,679,4,1,1355
"1080",2,4,680,4,1,2105
"1081",2,5,681,4,1,1607
"1082",2,2,682,4,1,1227
"1083",2,2,683,4,1,1217
"1084",2,2,684,4,1,1431
"1085",2,1,685,4,1,875
"1086",2,5,686,4,1,1465
"1087",2,4,687,4,1,1586
"1088",2,2,688,4,1,1287
"1089",2,1,689,4,1,1165
"1090",2,3,690,4,1,1763
"1091",2,1,691,4,1,1100
"1092",2,2,692,4,1,1688
"1093",2,1,693,4,1,1182
"1094",2,2,694,4,1,1127
"1095",2,1,695,4,1,1795
"1096",2,3,696,4,1,2347
"1097",2,4,697,4,1,1437
"1098",2,2,698,4,1,2473
"1099",2,2,699,4,1,1217
"1100",2,5,700,4,1,1377
"1101",2,3,701,4,1,1633
"1102",2,1,702,4,1,1123
"1103",2,1,703,4,1,1068
"1104",2,2,704,4,1,1393
"1105",2,1,705,4,1,1118
"1106",2,4,706,4,1,1586
"1107",2,2,707,4,1,1699
"1108",2,3,708,4,1,2168
"1109",2,5,709,4,1,1978
"1110",2,1,710,4,1,1046
"1111",2,2,711,4,1,1483
"1112",2,2,712,4,1,1121
"1113",2,5,713,4,1,1587
"1114",2,3,714,4,1,1862
"1115",2,4,715,4,1,1457
"1116",2,2,716,4,1,1067
"1117",2,5,717,4,1,1322
"1118",2,2,718,4,1,1079
"1119",2,4,719,4,1,2214
"1120",2,3,720,4,1,1437
"1121",2,3,721,4,1,1457
"1122",2,2,722,4,1,1285
"1123",2,2,723,4,1,1285
"1124",2,5,724,4,1,1613
"1125",2,4,725,4,1,2007
"1126",2,1,726,4,1,1109
"1127",2,2,727,4,1,1334
"1128",2,3,728,4,1,2079
"1129",2,3,729,4,1,1565
"1130",2,3,730,4,1,1363
"1131",2,2,731,4,1,1162
"1132",2,5,732,4,1,2345
"1133",2,5,733,4,1,1307
"1134",2,1,734,4,1,1115
"1135",2,1,735,4,1,1068
"1136",2,3,736,4,1,2267
"1137",2,4,737,4,1,1680
"1138",2,2,738,4,1,1079
"1139",2,1,739,4,1,1124
"1140",2,2,740,4,1,1224
"1141",2,2,741,4,1,1227
"1142",2,4,742,4,1,1850
"1143",2,4,743,4,1,2214
"1144",2,5,744,4,1,1276
"1145",2,2,745,4,1,2201
"1146",2,3,746,4,1,1913
"1147",2,3,747,4,1,1726
"1148",2,5,748,4,0,2096
"1149",2,1,749,4,0,1164
"1150",2,5,750,4,1,1199
"1151",2,5,751,4,1,1402
"1152",2,4,752,4,1,1974
"1153",2,1,753,4,1,1367
"1154",2,5,754,4,1,1307
"1155",2,5,755,4,1,1198
"1156",2,4,756,4,1,1414
"1157",2,4,757,4,1,1680
"1158",2,3,758,4,1,1714
"1159",2,1,759,4,1,1124
"1160",2,1,760,4,1,1102
"1161",2,1,761,4,1,1302
"1162",2,4,762,4,1,1584
"1163",2,1,763,4,1,1297
"1164",2,4,764,4,1,1963
"1165",2,4,765,4,1,1919
"1166",2,2,766,4,1,2201
"1167",2,4,767,4,1,1182
"1168",2,3,768,4,1,1292
"1169",2,5,769,4,1,1384
"1170",2,5,770,4,1,1616
"1171",2,5,771,4,1,1298
"1172",2,4,772,4,1,1746
"1173",2,1,773,4,1,1026
"1174",2,3,774,4,1,1527
"1175",2,1,775,4,1,1085
"1176",2,4,776,4,1,1603
"1177",2,5,777,4,1,1434
"1178",2,4,778,4,1,1635
"1179",2,1,779,4,1,1085
"1180",2,5,780,4,1,2065
"1181",2,4,781,4,1,1414
"1182",2,4,782,4,1,1746
"1183",2,4,783,4,1,1863
"1184",2,2,784,4,1,1283
"1185",2,2,785,4,1,1086
"1186",2,1,786,4,1,1115
"1187",2,5,787,4,1,1526
"1188",2,1,788,4,1,1165
"1189",2,2,789,4,1,1079
"1190",2,3,790,4,1,1292
"1191",2,4,791,4,1,1447
"1192",2,4,792,4,1,1620
"1193",2,4,793,4,1,1315
"1194",2,1,794,4,1,1123
"1195",2,4,795,4,1,1185
"1196",2,1,796,4,1,1085
"1197",2,4,797,4,1,1286
"1198",2,5,798,4,1,1322
"1199",2,4,799,4,1,1929
"1200",2,5,800,5,1,1902
"1201",2,5,801,5,1,1615
"1202",2,4,802,5,1,1929
"1203",2,2,803,5,1,1227
"1204",2,5,804,5,1,2607
"1205",2,5,805,5,1,1163
"1206",2,1,806,5,1,1384
"1207",2,3,807,5,1,2345
"1208",2,4,808,5,1,1683
"1209",2,1,809,5,1,1247
"1210",2,1,810,5,1,1139
"1211",2,4,811,5,1,1587
"1212",2,5,812,5,1,1326
"1213",2,2,813,5,1,2008
"1214",2,5,814,5,1,1125
"1215",2,1,815,5,1,1225
"1216",2,2,816,5,1,1162
"1217",2,3,817,5,1,1635
"1218",2,5,818,5,1,1276
"1219",2,1,819,5,1,1214
"1220",2,5,820,5,1,2127
"1221",2,4,821,5,1,1414
"1222",2,4,822,5,1,1329
"1223",2,5,823,5,1,1615
"1224",2,4,824,5,1,2007
"1225",2,4,825,5,1,1237
"1226",2,5,826,5,1,2025
"1227",2,1,827,5,1,955
"1228",2,3,828,5,1,1523
"1229",2,4,829,5,0,1336
"1230",2,5,830,5,1,1146
"1231",2,3,831,5,1,2042
"1232",2,5,832,5,1,1465
"1233",2,2,833,5,1,1327
"1234",2,1,834,5,1,1197
"1235",2,1,835,5,1,1182
"1236",2,3,836,5,1,1687
"1237",2,2,837,5,1,2008
"1238",2,2,838,5,1,1393
"1239",2,3,839,5,1,1873
"1240",2,4,840,5,1,1863
"1241",2,2,841,5,1,2008
"1242",2,5,842,5,1,1902
"1243",2,5,843,5,1,2363
"1244",2,4,844,5,1,1437
"1245",2,5,845,5,1,1607
"1246",2,1,846,5,1,1175
"1247",2,1,847,5,1,1447
"1248",2,2,848,5,1,1321
"1249",2,1,849,5,1,1048
"1250",2,1,850,5,1,1527
"1251",2,2,851,5,1,1355
"1252",2,4,852,5,1,1182
"1253",2,4,853,5,1,1481
"1254",2,4,854,5,1,1873
"1255",2,3,855,5,1,1531
"1256",2,2,856,5,1,1408
"1257",2,4,857,5,1,1546
"1258",2,2,858,5,1,1285
"1259",2,4,859,5,1,1694
"1260",2,2,860,5,1,2096
"1261",2,5,861,5,1,1163
"1262",2,1,862,5,1,1225
"1263",2,4,863,5,1,1566
"1264",2,4,864,5,1,1272
"1265",2,5,865,5,1,1362
"1266",2,3,866,5,1,1764
"1267",2,4,867,5,1,1448
"1268",2,3,868,5,1,1403
"1269",2,2,869,5,1,1152
"1270",2,4,870,5,1,1182
"1271",2,5,871,5,1,1448
"1272",2,3,872,5,1,1877
"1273",2,1,873,5,1,1043
"1274",2,4,874,5,1,1360
"1275",2,2,875,5,1,1266
"1276",2,2,876,5,1,1326
"1277",2,2,877,5,1,1498
"1278",2,2,878,5,1,1547
"1279",2,1,879,5,1,1206
"1280",2,4,880,5,1,1635
"1281",2,2,881,5,1,1287
"1282",2,5,882,5,1,1473
"1283",2,3,883,5,1,1556
"1284",2,4,884,5,1,1635
"1285",2,1,885,5,1,1367
"1286",2,4,886,5,1,1963
"1287",2,2,887,5,1,1086
"1288",2,5,888,5,1,1428
"1289",2,1,889,5,1,1527
"1290",2,1,890,5,1,1175
"1291",2,1,891,5,1,875
"1292",2,1,892,5,1,1068
"1293",2,3,893,5,1,1913
"1294",2,3,894,5,1,1862
"1295",2,2,895,5,1,1359
"1296",2,2,896,5,1,1383
"1297",2,1,897,5,1,1243
"1298",2,2,898,5,1,1801
"1299",2,2,899,5,1,1688
"1300",2,2,900,5,1,1285
"1301",2,4,901,5,1,1620
"1302",2,2,902,5,1,2049
"1303",2,1,903,5,1,1133
"1304",2,4,904,5,1,1167
"1305",2,2,905,5,1,1547
"1306",2,4,906,5,1,2442
"1307",2,1,907,5,1,1104
"1308",2,1,908,5,1,1596
"1309",2,2,909,5,1,1318
"1310",2,5,910,5,1,2363
"1311",2,2,911,5,1,1326
"1312",2,5,912,5,1,1156
"1313",2,5,913,5,1,1326
"1314",2,2,914,5,1,1699
"1315",2,1,915,5,1,1115
"1316",2,1,916,5,1,1163
"1317",2,3,917,5,1,1437
"1318",2,4,918,5,1,2523
"1319",2,2,919,5,1,1398
"1320",2,4,920,5,1,1315
"1321",2,4,921,5,1,1694
"1322",2,1,922,5,1,1175
"1323",2,4,923,5,1,1506
"1324",2,2,924,5,1,1645
"1325",2,3,925,5,1,1353
"1326",2,1,926,5,1,1068
"1327",2,3,927,5,1,1342
"1328",2,5,928,5,1,1428
"1329",2,5,929,5,1,1199
"1330",2,4,930,5,1,1352
"1331",2,4,931,5,1,1615
"1332",2,4,932,5,1,2523
"1333",2,3,933,5,1,1566
"1334",2,4,934,5,1,1335
"1335",2,1,935,5,1,1065
"1336",2,1,936,5,1,2202
"1337",2,2,937,5,1,1384
"1338",2,5,938,5,1,1362
"1339",2,5,939,5,1,1473
"1340",2,3,940,5,1,1523
"1341",2,5,941,5,1,1587
"1342",2,5,942,5,1,1979
"1343",2,4,943,5,1,2164
"1344",2,3,944,5,1,1308
"1345",2,2,945,5,1,1359
"1346",2,2,946,5,1,1326
"1347",2,1,947,5,1,1139
"1348",2,3,948,5,1,1565
"1349",2,3,949,5,1,1531
"1350",2,5,950,5,1,1236
"1351",2,5,951,5,1,1663
"1352",2,1,952,5,1,1194
"1353",2,5,953,5,1,1726
"1354",2,4,954,5,1,1475
"1355",2,2,955,5,1,1285
"1356",2,2,956,5,1,1512
"1357",2,3,957,5,1,2042
"1358",2,2,958,5,1,2473
"1359",2,4,959,5,1,1638
"1360",2,4,960,5,1,1286
"1361",2,2,961,5,1,1086
"1362",2,4,962,5,1,1447
"1363",2,1,963,5,1,1106
"1364",2,2,964,5,1,1127
"1365",2,2,965,5,1,1067
"1366",2,3,966,5,1,2456
"1367",2,1,967,5,1,875
"1368",2,3,968,5,1,1708
"1369",2,3,969,5,1,1891
"1370",2,3,970,5,1,1523
"1371",2,2,971,5,1,1547
"1372",2,2,972,5,1,1393
"1373",2,3,973,5,1,1437
"1374",2,4,974,5,1,1444
"1375",2,4,975,5,1,1448
"1376",2,3,976,5,1,1514
"1377",2,4,977,5,1,1603
"1378",2,5,978,5,1,1617
"1379",2,2,979,5,1,1180
"1380",2,1,980,5,1,1345
"1381",2,4,981,5,1,1735
"1382",2,3,982,5,1,2227
"1383",2,3,983,5,1,2227
"1384",2,1,984,5,1,1085
"1385",2,1,985,5,1,1123
"1386",2,1,986,5,1,1384
"1387",2,1,987,5,1,1175
"1388",2,3,988,5,1,2188
"1389",2,4,989,5,1,1864
"1390",2,2,990,5,1,1801
"1391",2,3,991,5,1,1891
"1392",2,5,992,5,1,1377
"1393",2,5,993,5,1,1682
"1394",2,2,994,5,1,1086
"1395",2,4,995,5,1,1694
"1396",2,2,996,5,1,2185
"1397",2,3,997,5,1,2270
"1398",2,4,998,5,1,1448
"1399",2,5,999,5,1,1422
"1400",2,5,1000,6,1,1526
"1401",2,4,1001,6,1,1123
"1402",2,3,1002,6,1,1181
"1403",2,3,1003,6,1,1514
"1404",2,4,1004,6,1,1603
"1405",2,5,1005,6,1,2096
"1406",2,4,1006,6,1,1546
"1407",2,2,1007,6,1,1645
"1408",2,1,1008,6,1,1178
"1409",2,2,1009,6,1,1350
"1410",2,5,1010,6,1,1684
"1411",2,1,1011,6,1,1156
"1412",2,4,1012,6,1,1919
"1413",2,4,1013,6,1,1695
"1414",2,3,1014,6,1,1495
"1415",2,1,1015,6,1,1225
"1416",2,2,1016,6,1,1266
"1417",2,2,1017,6,1,1217
"1418",2,3,1018,6,1,1675
"1419",2,2,1019,6,1,1178
"1420",2,2,1020,6,1,1318
"1421",2,3,1021,6,1,1523
"1422",2,3,1022,6,1,1308
"1423",2,3,1023,6,1,1913
"1424",2,5,1024,6,1,1127
"1425",2,3,1025,6,1,1268
"1426",2,5,1026,6,1,1186
"1427",2,3,1027,6,1,1268
"1428",2,1,1028,6,1,1014
"1429",2,3,1029,6,1,1241
"1430",2,3,1030,6,1,1633
"1431",2,3,1031,6,1,2227
"1432",2,1,1032,6,1,1795
"1433",2,3,1033,6,1,2456
"1434",2,3,1034,6,1,1310
"1435",2,4,1035,6,1,2105
"1436",2,1,1036,6,1,1194
"1437",2,3,1037,6,1,1764
"1438",2,4,1038,6,1,1346
"1439",2,1,1039,6,1,1206
"1440",2,3,1040,6,1,1725
"1441",2,4,1041,6,1,1335
"1442",2,5,1042,6,1,1603
"1443",2,4,1043,6,1,1635
"1444",2,3,1044,6,1,2345
"1445",2,3,1045,6,1,1725
"1446",2,1,1046,6,1,1104
"1447",2,5,1047,6,1,1198
"1448",2,5,1048,6,1,2065
"1449",2,4,1049,6,1,1237
"1450",2,1,1050,6,1,1118
"1451",2,2,1051,6,1,1767
"1452",2,5,1052,6,1,2604
"1453",2,5,1053,6,1,2363
"1454",2,3,1054,6,1,1213
"1455",2,2,1055,6,1,1645
"1456",2,1,1056,6,1,1085
"1457",2,3,1057,6,1,1725
"1458",2,5,1058,6,1,1387
"1459",2,4,1059,6,1,1574
"1460",2,2,1060,6,1,2052
"1461",2,2,1061,6,1,1527
"1462",2,5,1062,6,1,1156
"1463",2,4,1063,6,1,1574
"1464",2,4,1064,6,1,1414
"1465",2,5,1065,6,1,1345
"1466",2,2,1066,6,1,1645
"1467",2,2,1067,6,1,2052
"1468",2,2,1068,6,1,1321
"1469",2,2,1069,6,1,1483
"1470",2,3,1070,6,1,1290
"1471",2,1,1071,6,1,1104
"1472",2,2,1072,6,1,1439
"1473",2,2,1073,6,1,1184
"1474",2,5,1074,6,1,1162
"1475",2,3,1075,6,1,1708
"1476",2,5,1076,6,1,1313
"1477",2,2,1077,6,1,1350
"1478",2,4,1078,6,1,1503
"1479",2,5,1079,6,1,1285
"1480",2,4,1080,6,1,1546
"1481",2,5,1081,6,1,2025
"1482",2,5,1082,6,1,1524
"1483",2,2,1083,6,1,2096
"1484",2,4,1084,6,1,1929
"1485",2,5,1085,6,1,1387
"1486",2,3,1086,6,1,1627
"1487",2,1,1087,6,1,1048
"1488",2,2,1088,6,1,1355
"1489",2,5,1089,6,1,1829
"1490",2,4,1090,6,1,1680
"1491",2,2,1091,6,1,2185
"1492",2,5,1092,6,1,1682
"1493",2,3,1093,6,1,2267
"1494",2,3,1094,6,1,1514
"1495",2,2,1095,6,1,1326
"1496",2,3,1096,6,1,1714
"1497",2,5,1097,6,1,1162
"1498",2,1,1098,6,1,1194
"1499",2,5,1099,6,1,1199
"1500",2,2,1100,6,1,2264
"1501",2,3,1101,6,1,1877
"1502",2,1,1102,6,1,1596
"1503",2,4,1103,6,1,1182
"1504",2,1,1104,6,1,1085
"1505",2,1,1105,6,1,1367
"1506",2,1,1106,6,1,1085
"1507",2,5,1107,6,1,1402
"1508",2,5,1108,6,1,1198
"1509",2,5,1109,6,1,1473
"1510",2,3,1110,6,1,2188
"1511",2,1,1111,6,1,1194
"1512",2,5,1112,6,1,1345
"1513",2,4,1113,6,1,1481
"1514",2,2,1114,6,1,1127
"1515",2,4,1115,6,1,1481
"1516",2,3,1116,6,1,1525
"1517",2,4,1117,6,1,1444
"1518",2,4,1118,6,1,1306
"1519",2,1,1119,6,1,1043
"1520",2,2,1120,6,1,1398
"1521",2,1,1121,6,1,1046
"1522",2,3,1122,6,1,1527
"1523",2,5,1123,6,1,1465
"1524",2,2,1124,6,1,1344
"1525",2,2,1125,6,1,2096
"1526",2,5,1126,6,1,1603
"1527",2,1,1127,6,1,877
"1528",2,3,1128,6,1,1687
"1529",2,1,1129,6,1,1118
"1530",2,3,1130,6,1,1525
"1531",2,1,1131,6,1,1100
"1532",2,4,1132,6,1,1256
"1533",2,1,1133,6,1,1133
"1534",2,1,1134,6,1,955
"1535",2,2,1135,6,1,1152
"1536",2,3,1136,6,1,1308
"1537",2,3,1137,6,1,1708
"1538",2,2,1138,6,1,2049
"1539",2,5,1139,6,1,1465
"1540",2,2,1140,6,1,1749
"1541",2,5,1141,6,1,1806
"1542",2,2,1142,6,1,1340
"1543",2,1,1143,6,1,1092
"1544",2,4,1144,6,1,1984
"1545",2,3,1145,6,1,1566
"1546",2,1,1146,6,1,1164
"1547",2,4,1147,6,1,1437
"1548",2,3,1148,6,1,1241
"1549",2,5,1149,6,1,1107
"1550",2,1,1150,6,1,1065
"1551",2,5,1151,6,1,1624
"1552",2,2,1152,6,1,1121
"1553",2,4,1153,6,1,1529
"1554",2,1,1154,6,1,1225
"1555",2,1,1155,6,1,1102
"1556",2,2,1156,6,1,1829
"1557",2,1,1157,6,1,1194
"1558",2,3,1158,6,1,1764
"1559",2,2,1159,6,1,1393
"1560",2,1,1160,6,1,1118
"1561",2,2,1161,6,1,1688
"1562",2,5,1162,6,1,1107
"1563",2,5,1163,6,1,1313
"1564",2,2,1164,6,1,1283
"1565",2,4,1165,6,1,1416
"1566",2,2,1166,6,1,1749
"1567",2,5,1167,6,1,2096
"1568",2,2,1168,6,1,1234
"1569",2,3,1169,6,1,2042
"1570",2,3,1170,6,1,1402
"1571",2,4,1171,6,1,1429
"1572",2,4,1172,6,1,1239
"1573",2,3,1173,6,1,1292
"1574",2,5,1174,6,1,1454
"1575",2,1,1175,6,1,1345
"1576",2,5,1176,6,1,2025
"1577",2,3,1177,6,1,1402
"1578",2,2,1178,6,1,1645
"1579",2,1,1179,6,1,877
"1580",2,3,1180,6,1,1806
"1581",2,5,1181,6,1,1298
"1582",2,5,1182,6,1,1176
"1583",2,2,1183,6,1,2201
"1584",2,1,1184,6,1,1123
"1585",2,3,1185,6,1,1675
"1586",2,1,1186,6,1,1106
"1587",2,3,1187,6,1,1213
"1588",2,5,1188,6,1,1465
"1589",2,3,1189,6,1,1862
"1590",2,1,1190,6,1,1103
"1591",2,1,1191,6,1,1077
"1592",2,2,1192,6,1,1395
"1593",2,1,1193,6,1,1016
"1594",2,4,1194,6,1,1963
"1595",2,2,1195,6,1,1605
"1596",2,1,1196,6,1,1085
"1597",2,3,1197,6,1,1873
"1598",2,2,1198,6,1,1465
"1599",2,2,1199,6,1,1527
"1600",2,1,1200,7,1,1527
"1601",2,1,1201,7,1,1077
"1602",2,2,1202,7,1,1465
"1603",2,4,1203,7,1,1256
"1604",2,2,1204,7,1,1162
"1605",2,4,1205,7,1,1272
"1606",2,2,1206,7,1,1190
"1607",2,1,1207,7,1,1100
"1608",2,5,1208,7,1,1163
"1609",2,3,1209,7,1,1506
"1610",2,4,1210,7,1,1985
"1611",2,3,1211,7,1,1274
"1612",2,3,1212,7,1,1391
"1613",2,5,1213,7,1,2604
"1614",2,5,1214,7,1,1307
"1615",2,3,1215,7,1,1353
"1616",2,5,1216,7,1,1345
"1617",2,2,1217,7,1,1571
"1618",2,5,1218,7,1,1385
"1619",2,2,1219,7,1,2052
"1620",2,5,1220,7,1,1613
"1621",2,5,1221,7,1,1626
"1622",2,3,1222,7,1,2163
"1623",2,3,1223,7,1,1892
"1624",2,4,1224,7,1,1448
"1625",2,1,1225,7,1,1104
"1626",2,1,1226,7,1,1123
"1627",2,3,1227,7,1,1378
"1628",2,4,1228,7,1,1635
"1629",2,4,1229,7,1,1985
"1630",2,1,1230,7,1,1175
"1631",2,4,1231,7,1,1306
"1632",2,5,1232,7,1,1162
"1633",2,5,1233,7,1,1722
"1634",2,5,1234,7,1,1198
"1635",2,2,1235,7,1,1152
"1636",2,2,1236,7,1,1325
"1637",2,3,1237,7,1,1556
"1638",2,3,1238,7,1,2345
"1639",2,5,1239,7,1,2127
"1640",2,4,1240,7,1,1329
"1641",2,1,1241,7,1,1374
"1642",2,3,1242,7,1,1675
"1643",2,3,1243,7,1,1310
"1644",2,5,1244,7,1,1978
"1645",2,1,1245,7,1,1133
"1646",2,5,1246,7,1,1726
"1647",2,4,1247,7,1,1625
"1648",2,3,1248,7,1,1548
"1649",2,1,1249,7,1,1133
"1650",2,3,1250,7,1,1268
"1651",2,4,1251,7,1,1603
"1652",2,5,1252,7,1,1146
"1653",2,4,1253,7,1,1683
"1654",2,4,1254,7,1,1481
"1655",2,1,1255,7,1,1090
"1656",2,4,1256,7,1,1529
"1657",2,2,1257,7,1,1162
"1658",2,2,1258,7,1,2806
"1659",2,2,1259,7,1,1190
"1660",2,2,1260,7,1,1451
"1661",2,2,1261,7,1,1178
"1662",2,3,1262,7,1,1406
"1663",2,3,1263,7,1,1548
"1664",2,3,1264,7,1,1716
"1665",2,4,1265,7,1,1919
"1666",2,5,1266,7,1,1524
"1667",2,2,1267,7,1,1334
"1668",2,2,1268,7,1,1498
"1669",2,5,1269,7,1,2103
"1670",2,1,1270,7,1,1247
"1671",2,4,1271,7,1,1566
"1672",2,1,1272,7,1,1146
"1673",2,1,1273,7,1,1108
"1674",2,3,1274,7,1,1764
"1675",2,3,1275,7,1,1347
"1676",2,1,1276,7,1,1175
"1677",2,1,1277,7,1,1046
"1678",2,2,1278,7,1,1184
"1679",2,5,1279,7,1,1663
"1680",2,5,1280,7,1,1978
"1681",2,3,1281,7,1,2726
"1682",2,3,1282,7,1,1687
"1683",2,1,1283,7,1,1043
"1684",2,3,1284,7,1,2347
"1685",2,2,1285,7,1,1285
"1686",2,4,1286,7,1,1683
"1687",2,1,1287,7,1,1098
"1688",2,3,1288,7,1,1635
"1689",2,1,1289,7,1,1086
"1690",2,1,1290,7,1,1086
"1691",2,1,1291,7,1,1581
"1692",2,3,1292,7,1,1800
"1693",2,3,1293,7,1,2444
"1694",2,3,1294,7,1,1181
"1695",2,1,1295,7,1,1057
"1696",2,5,1296,7,1,1163
"1697",2,1,1297,7,1,1105
"1698",2,4,1298,7,1,963
"1699",2,5,1299,7,1,2607
"1700",2,4,1300,7,1,1638
"1701",2,1,1301,7,1,1182
"1702",2,1,1302,7,1,1374
"1703",2,2,1303,7,1,1498
"1704",2,1,1304,7,1,1133
"1705",2,1,1305,7,1,1057
"1706",2,4,1306,7,1,1985
"1707",2,5,1307,7,1,1176
"1708",2,2,1308,7,1,1605
"1709",2,3,1309,7,1,1318
"1710",2,1,1310,7,1,1345
"1711",2,4,1311,7,1,2164
"1712",2,3,1312,7,1,2192
"1713",2,4,1313,7,1,2164
"1714",2,2,1314,7,1,1217
"1715",2,3,1315,7,1,1353
"1716",2,5,1316,7,1,1722
"1717",2,4,1317,7,1,1546
"1718",2,5,1318,7,1,1280
"1719",2,1,1319,7,1,1106
"1720",2,5,1320,7,1,2096
"1721",2,5,1321,7,1,1615
"1722",2,4,1322,7,1,1494
"1723",2,4,1323,7,1,1746
"1724",2,4,1324,7,1,1360
"1725",2,2,1325,7,1,1398
"1726",2,3,1326,7,1,1925
"1727",2,1,1327,7,1,1247
"1728",2,2,1328,7,1,1121
"1729",2,2,1329,7,1,1178
"1730",2,4,1330,7,1,1603
"1731",2,3,1331,7,1,1764
"1732",2,4,1332,7,1,1864
"1733",2,4,1333,7,1,1667
"1734",2,2,1334,7,1,2185
"1735",2,3,1335,7,1,1675
"1736",2,1,1336,7,1,1384
"1737",2,2,1337,7,1,2052
"1738",2,5,1338,7,1,1257
"1739",2,4,1339,7,1,1185
"1740",2,3,1340,7,1,1877
"1741",2,2,1341,7,1,2185
"1742",2,3,1342,7,1,1892
"1743",2,2,1343,7,1,1699
"1744",2,4,1344,7,1,1929
"1745",2,2,1345,7,1,1355
"1746",2,2,1346,7,1,1178
"1747",2,2,1347,7,1,1453
"1748",2,1,1348,7,1,1048
"1749",2,2,1349,7,1,1287
"1750",2,3,1350,7,1,1913
"1751",2,4,1351,7,1,1123
"1752",2,4,1352,7,1,1667
"1753",2,2,1353,7,1,1067
"1754",2,4,1354,7,1,1344
"1755",2,1,1355,7,1,1243
"1756",2,3,1356,7,1,1342
"1757",2,1,1357,7,1,1086
"1758",2,4,1358,7,1,2021
"1759",2,1,1359,7,1,1302
"1760",2,5,1360,7,1,1139
"1761",2,5,1361,7,1,1285
"1762",2,2,1362,7,1,1395
"1763",2,3,1363,7,1,2168
"1764",2,5,1364,7,1,1280
"1765",2,5,1365,7,1,1428
"1766",2,2,1366,7,1,1512
"1767",2,5,1367,7,1,1280
"1768",2,4,1368,7,1,1256
"1769",2,5,1369,7,1,2065
"1770",2,5,1370,7,1,1448
"1771",2,1,1371,7,1,1795
"1772",2,1,1372,7,1,1092
"1773",2,4,1373,7,1,1985
"1774",2,1,1374,7,1,1111
"1775",2,3,1375,7,1,1245
"1776",2,3,1376,7,1,1556
"1777",2,5,1377,7,1,1387
"1778",2,2,1378,7,1,1227
"1779",2,4,1379,7,1,1863
"1780",2,4,1380,7,1,1680
"1781",2,5,1381,7,1,1384
"1782",2,3,1382,7,1,1891
"1783",2,5,1383,7,1,1139
"1784",2,2,1384,7,1,2201
"1785",2,4,1385,7,1,1735
"1786",2,3,1386,7,1,1186
"1787",2,2,1387,7,1,1512
"1788",2,4,1388,7,1,1167
"1789",2,2,1389,7,1,1699
"1790",2,3,1390,7,1,1913
"1791",2,2,1391,7,1,1517
"1792",2,4,1392,7,1,2007
"1793",2,4,1393,7,1,1974
"1794",2,1,1394,7,1,1115
"1795",2,5,1395,7,1,1457
"1796",2,1,1396,7,1,1148
"1797",2,5,1397,7,1,1607
"1798",2,1,1398,7,1,1182
"1799",2,4,1399,7,1,1503
"1800",2,2,1400,8,1,1439
"1801",2,2,1401,8,1,1321
"1802",2,4,1402,8,1,1974
"1803",2,1,1403,8,1,1164
"1804",2,3,1404,8,1,1245
"1805",2,3,1405,8,1,1181
"1806",2,3,1406,8,1,2267
"1807",2,1,1407,8,1,1085
"1808",2,3,1408,8,1,1292
"1809",2,1,1409,8,1,1123
"1810",2,3,1410,8,1,2267
"1811",2,3,1411,8,1,2079
"1812",2,5,1412,8,1,1457
"1813",2,4,1413,8,1,1506
"1814",2,3,1414,8,1,2163
"1815",2,3,1415,8,1,1506
"1816",2,4,1416,8,1,1506
"1817",2,4,1417,8,1,1863
"1818",2,2,1418,8,1,1451
"1819",2,1,1419,8,1,1098
"1820",2,2,1420,8,1,1067
"1821",2,1,1421,8,1,1102
"1822",2,4,1422,8,1,1984
"1823",2,2,1423,8,1,1327
"1824",2,4,1424,8,1,1587
"1825",2,3,1425,8,1,1391
"1826",2,1,1426,8,1,1133
"1827",2,2,1427,8,1,1393
"1828",2,3,1428,8,1,1708
"1829",2,5,1429,8,1,1257
"1830",2,1,1430,8,1,1057
"1831",2,5,1431,8,1,2103
"1832",2,2,1432,8,1,1512
"1833",2,2,1433,8,1,1764
"1834",2,1,1434,8,1,818
"1835",2,2,1435,8,1,1045
"1836",2,2,1436,8,1,1340
"1837",2,5,1437,8,1,1978
"1838",2,4,1438,8,1,1315
"1839",2,4,1439,8,1,2639
"1840",2,2,1440,8,1,1162
"1841",2,2,1441,8,1,1184
"1842",2,3,1442,8,1,1763
"1843",2,4,1443,8,1,1984
"1844",2,2,1444,8,1,1340
"1845",2,1,1445,8,1,1147
"1846",2,4,1446,8,1,1984
"1847",2,4,1447,8,1,1272
"1848",2,2,1448,8,1,1338
"1849",2,5,1449,8,1,1428
"1850",2,4,1450,8,1,2081
"1851",2,5,1451,8,1,1156
"1852",2,4,1452,8,1,1306
"1853",2,5,1453,8,1,1313
"1854",2,4,1454,8,1,1735
"1855",2,1,1455,8,1,818
"1856",2,1,1456,8,1,1164
"1857",2,1,1457,8,1,1108
"1858",2,3,1458,8,1,1633
"1859",2,4,1459,8,1,1414
"1860",2,2,1460,8,1,1482
"1861",2,4,1461,8,1,1984
"1862",2,5,1462,8,1,2345
"1863",2,1,1463,8,1,1057
"1864",2,2,1464,8,1,1344
"1865",2,2,1465,8,1,1431
"1866",2,3,1466,8,1,2423
"1867",2,5,1467,8,1,1603
"1868",2,4,1468,8,1,1286
"1869",2,5,1469,8,1,1533
"1870",2,5,1470,8,1,1413
"1871",2,5,1471,8,1,1326
"1872",2,4,1472,8,1,1239
"1873",2,5,1473,8,1,1863
"1874",2,5,1474,8,1,1162
"1875",2,5,1475,8,1,1304
"1876",2,1,1476,8,1,1016
"1877",2,3,1477,8,1,1635
"1878",2,2,1478,8,1,1829
"1879",2,3,1479,8,1,1525
"1880",2,2,1480,8,1,1492
"1881",2,3,1481,8,1,2726
"1882",2,5,1482,8,1,1945
"1883",2,3,1483,8,1,1318
"1884",2,1,1484,8,1,1182
"1885",2,2,1485,8,1,1287
"1886",2,5,1486,8,1,2345
"1887",2,4,1487,8,1,1352
"1888",2,1,1488,8,1,1163
"1889",2,5,1489,8,1,2103
"1890",2,1,1490,8,1,1085
"1891",2,5,1491,8,1,1663
"1892",2,4,1492,8,1,1640
"1893",2,3,1493,8,1,2267
"1894",2,3,1494,8,1,2270
"1895",2,1,1495,8,1,1297
"1896",2,5,1496,8,1,1176
"1897",2,3,1497,8,1,1464
"1898",2,1,1498,8,1,1085
"1899",2,2,1499,8,1,1193
"1900",2,3,1500,8,1,1987
"1901",2,1,1501,8,1,2202
"1902",2,4,1502,8,1,1429
"1903",2,5,1503,8,1,1402
"1904",2,2,1504,8,1,1266
"1905",2,4,1505,8,1,1683
"1906",2,3,1506,8,1,1892
"1907",2,1,1507,8,1,1026
"1908",2,2,1508,8,1,1717
"1909",2,3,1509,8,1,1891
"1910",2,3,1510,8,1,2726
"1911",2,2,1511,8,1,1193
"1912",2,1,1512,8,1,1243
"1913",2,4,1513,8,1,1457
"1914",2,5,1514,8,1,1626
"1915",2,4,1515,8,1,1457
"1916",2,2,1516,8,1,1350
"1917",2,2,1517,8,1,2473
"1918",2,2,1518,8,1,1184
"1919",2,4,1519,8,1,1963
"1920",2,5,1520,8,1,1326
"1921",2,3,1521,8,1,2347
"1922",2,4,1522,8,1,2214
"1923",2,1,1523,8,1,1076
"1924",2,5,1524,8,1,1259
"1925",2,2,1525,8,1,1190
"1926",2,2,1526,8,1,1408
"1927",2,5,1527,8,1,1840
"1928",2,4,1528,8,1,1984
"1929",2,1,1529,8,1,1148
"1930",2,5,1530,8,1,2065
"1931",2,1,1531,8,1,1105
"1932",2,2,1532,8,1,1327
"1933",2,2,1533,8,1,1162
"1934",2,5,1534,8,1,1387
"1935",2,2,1535,8,1,1338
"1936",2,3,1536,8,1,1924
"1937",2,5,1537,8,1,1806
"1938",2,2,1538,8,1,1180
"1939",2,2,1539,8,1,2096
"1940",2,4,1540,8,1,1587
"1941",2,5,1541,8,1,1603
"1942",2,4,1542,8,1,1444
"1943",2,4,1543,8,1,1746
"1944",2,2,1544,8,1,1746
"1945",2,2,1545,8,1,1127
"1946",2,5,1546,8,1,1362
"1947",2,2,1547,8,1,1184
"1948",2,1,1548,8,1,1581
"1949",2,2,1549,8,1,1283
"1950",2,4,1550,8,1,1494
"1951",2,3,1551,8,1,1726
"1952",2,4,1552,8,1,1346
"1953",2,4,1553,8,1,1587
"1954",2,5,1554,8,1,1298
"1955",2,3,1555,8,1,1402
"1956",2,4,1556,8,1,1974
"1957",2,4,1557,8,1,1360
"1958",2,5,1558,8,1,1473
"1959",2,3,1559,8,1,1927
"1960",2,1,1560,8,1,1104
"1961",2,2,1561,8,1,1408
"1962",2,5,1562,8,1,1384
"1963",2,4,1563,8,0,NA
"1964",2,3,1564,8,1,1716
"1965",2,3,1565,8,1,1525
"1966",2,3,1566,8,1,1406
"1967",2,3,1567,8,1,1726
"1968",2,5,1568,8,1,1176
"1969",2,4,1569,8,1,1204
"1970",2,2,1570,8,1,1764
"1971",2,5,1571,8,1,1840
"1972",2,2,1572,8,1,1492
"1973",2,2,1573,8,1,1350
"1974",2,4,1574,8,1,1919
"1975",2,5,1575,8,1,1806
"1976",2,5,1576,8,1,1186
"1977",2,3,1577,8,1,1403
"1978",2,1,1578,8,1,1345
"1979",2,1,1579,8,1,1139
"1980",2,3,1580,8,1,1627
"1981",2,4,1581,8,1,1123
"1982",2,2,1582,8,1,1764
"1983",2,4,1583,8,1,2214
"1984",2,2,1584,8,1,1086
"1985",2,2,1585,8,1,1688
"1986",2,5,1586,8,1,1434
"1987",2,2,1587,8,1,1162
"1988",2,4,1588,8,1,963
"1989",2,5,1589,8,1,1616
"1990",2,5,1590,8,1,1863
"1991",2,5,1591,8,1,1533
"1992",2,1,1592,8,1,1147
"1993",2,4,1593,8,1,1335
"1994",2,3,1594,8,1,1403
"1995",2,4,1595,8,1,1315
"1996",2,2,1596,8,1,1498
"1997",2,3,1597,8,1,1987
"1998",2,3,1598,8,1,1687
"1999",2,2,1599,8,1,1359
"2000",2,5,1600,9,1,2363
"2001",2,4,1601,9,1,1447
"2002",2,4,1602,9,1,1850
"2003",2,5,1603,9,1,1413
"2004",2,3,1604,9,1,1635
"2005",2,1,1605,9,1,1065
"2006",2,4,1606,9,1,1360
"2007",2,3,1607,9,1,1892
"2008",2,3,1608,9,1,1800
"2009",2,1,1609,9,1,1133
"2010",2,4,1610,9,1,1503
"2011",2,2,1611,9,1,1492
"2012",2,4,1612,9,1,1735
"2013",2,3,1613,9,1,1924
"2014",2,2,1614,9,1,1453
"2015",2,2,1615,9,1,1326
"2016",2,4,1616,9,1,1336
"2017",2,4,1617,9,1,1306
"2018",2,2,1618,9,1,1234
"2019",2,2,1619,9,1,1338
"2020",2,4,1620,9,1,2544
"2021",2,5,1621,9,1,1298
"2022",2,4,1622,9,1,1984
"2023",2,3,1623,9,1,1924
"2024",2,3,1624,9,1,1342
"2025",2,5,1625,9,1,1127
"2026",2,4,1626,9,1,1336
"2027",2,5,1627,9,1,1198
"2028",2,2,1628,9,1,1162
"2029",2,3,1629,9,1,1548
"2030",2,4,1630,9,1,1638
"2031",2,5,1631,9,1,1840
"2032",2,3,1632,9,1,2192
"2033",2,5,1633,9,1,1662
"2034",2,5,1634,9,1,1624
"2035",2,5,1635,9,1,1385
"2036",2,2,1636,9,1,1184
"2037",2,3,1637,9,1,1868
"2038",2,2,1638,9,1,2264
"2039",2,1,1639,9,1,877
"2040",2,5,1640,9,1,1384
"2041",2,3,1641,9,1,1189
"2042",2,5,1642,9,1,1385
"2043",2,5,1643,9,1,1533
"2044",2,4,1644,9,1,2081
"2045",2,1,1645,9,1,1076
"2046",2,4,1646,9,1,1746
"2047",2,1,1647,9,1,1163
"2048",2,4,1648,9,1,1414
"2049",2,5,1649,9,1,1280
"2050",2,5,1650,9,1,1526
"2051",2,4,1651,9,1,1416
"2052",2,1,1652,9,1,1178
"2053",2,5,1653,9,1,1684
"2054",2,3,1654,9,1,1627
"2055",2,5,1655,9,1,1125
"2056",2,5,1656,9,1,1454
"2057",2,3,1657,9,1,1927
"2058",2,4,1658,9,1,2639
"2059",2,4,1659,9,1,2021
"2060",2,2,1660,9,1,1398
"2061",2,4,1661,9,1,1529
"2062",2,4,1662,9,1,2442
"2063",2,4,1663,9,1,1929
"2064",2,1,1664,9,1,875
"2065",2,4,1665,9,1,1239
"2066",2,4,1666,9,1,1167
"2067",2,3,1667,9,1,1565
"2068",2,3,1668,9,1,2163
"2069",2,1,1669,9,1,1148
"2070",2,3,1670,9,1,2192
"2071",2,1,1671,9,1,1139
"2072",2,1,1672,9,1,1014
"2073",2,4,1673,9,1,1546
"2074",2,2,1674,9,1,1217
"2075",2,2,1675,9,1,1285
"2076",2,2,1676,9,1,1431
"2077",2,5,1677,9,1,1863
"2078",2,1,1678,9,1,1014
"2079",2,1,1679,9,1,1077
"2080",2,4,1680,9,1,1802
"2081",2,5,1681,9,1,2345
"2082",2,2,1682,9,1,1344
"2083",2,5,1683,9,1,1276
"2084",2,4,1684,9,0,NA
"2085",2,3,1685,9,1,1378
"2086",2,1,1686,9,1,1182
"2087",2,1,1687,9,1,1090
"2088",2,4,1688,9,1,1667
"2089",2,5,1689,9,1,1539
"2090",2,5,1690,9,1,1125
"2091",2,3,1691,9,1,1391
"2092",2,4,1692,9,1,1586
"2093",2,1,1693,9,1,1247
"2094",2,3,1694,9,1,2423
"2095",2,5,1695,9,1,1422
"2096",2,4,1696,9,1,1494
"2097",2,5,1697,9,1,1307
"2098",2,5,1698,9,1,1322
"2099",2,2,1699,9,1,1746
"2100",2,1,1700,9,1,1156
"2101",2,4,1701,9,1,2081
"2102",2,5,1702,9,1,1377
"2103",2,5,1703,9,1,1945
"2104",2,2,1704,9,1,1162
"2105",2,2,1705,9,1,1383
"2106",2,3,1706,9,1,2188
"2107",2,4,1707,9,1,1344
"2108",2,4,1708,9,1,1237
"2109",2,5,1709,9,1,1613
"2110",2,3,1710,9,1,2188
"2111",2,2,1711,9,1,1162
"2112",2,1,1712,9,1,1104
"2113",2,3,1713,9,1,1565
"2114",2,5,1714,9,1,1107
"2115",2,3,1715,9,1,1527
"2116",2,4,1716,9,1,1625
"2117",2,3,1717,9,1,2192
"2118",2,5,1718,9,1,1623
"2119",2,1,1719,9,1,1086
"2120",2,1,1720,9,1,955
"2121",2,4,1721,9,1,1667
"2122",2,4,1722,9,1,1123
"2123",2,3,1723,9,1,1186
"2124",2,5,1724,9,1,1663
"2125",2,3,1725,9,1,2270
"2126",2,4,1726,9,1,1506
"2127",2,4,1727,9,1,1256
"2128",2,2,1728,9,1,1321
"2129",2,4,1729,9,1,1695
"2130",2,1,1730,9,1,1206
"2131",2,4,1731,9,1,1494
"2132",2,3,1732,9,1,1495
"2133",2,2,1733,9,1,1749
"2134",2,2,1734,9,1,1227
"2135",2,2,1735,9,1,2049
"2136",2,3,1736,9,1,1633
"2137",2,4,1737,9,1,1529
"2138",2,4,1738,9,1,1566
"2139",2,1,1739,9,1,1197
"2140",2,5,1740,9,1,1322
"2141",2,5,1741,9,1,1384
"2142",2,5,1742,9,1,1127
"2143",2,2,1743,9,1,1749
"2144",2,4,1744,9,1,1329
"2145",2,2,1745,9,1,2008
"2146",2,5,1746,9,1,1662
"2147",2,3,1747,9,1,1548
"2148",2,1,1748,9,1,1164
"2149",2,3,1749,9,1,1186
"2150",2,4,1750,9,1,1546
"2151",2,5,1751,9,1,1304
"2152",2,4,1752,9,1,1984
"2153",2,4,1753,9,1,1437
"2154",2,2,1754,9,1,1340
"2155",2,5,1755,9,1,2127
"2156",2,1,1756,9,1,1105
"2157",2,4,1757,9,1,1625
"2158",2,3,1758,9,1,1800
"2159",2,2,1759,9,1,1162
"2160",2,3,1760,9,1,1548
"2161",2,2,1761,9,1,1325
"2162",2,1,1762,9,1,1367
"2163",2,5,1763,9,1,1107
"2164",2,5,1764,9,1,1448
"2165",2,2,1765,9,1,1383
"2166",2,2,1766,9,1,1746
"2167",2,1,1767,9,1,1124
"2168",2,5,1768,9,1,1276
"2169",2,2,1769,9,1,1465
"2170",2,3,1770,9,1,2079
"2171",2,5,1771,9,1,1257
"2172",2,1,1772,9,1,963
"2173",2,1,1773,9,1,1048
"2174",2,2,1774,9,1,1285
"2175",2,4,1775,9,1,1352
"2176",2,4,1776,9,1,2081
"2177",2,1,1777,9,1,1104
"2178",2,3,1778,9,1,1716
"2179",2,3,1779,9,1,2456
"2180",2,3,1780,9,1,1347
"2181",2,2,1781,9,1,2008
"2182",2,3,1782,9,1,1347
"2183",2,5,1783,9,1,1722
"2184",2,1,1784,9,1,1148
"2185",2,1,1785,9,1,1146
"2186",2,4,1786,9,1,1603
"2187",2,5,1787,9,1,1156
"2188",2,3,1788,9,1,1987
"2189",2,4,1789,9,1,1346
"2190",2,4,1790,9,1,2007
"2191",2,3,1791,9,1,1186
"2192",2,3,1792,9,1,1891
"2193",2,1,1793,9,1,1175
"2194",2,1,1794,9,1,1178
"2195",2,2,1795,9,1,1843
"2196",2,1,1796,9,1,1302
"2197",2,1,1797,9,1,1146
"2198",2,1,1798,9,1,1384
"2199",2,1,1799,9,1,1175
"2200",2,1,1800,10,1,1581
"2201",2,1,1801,10,1,1126
"2202",2,2,1802,10,1,1334
"2203",2,1,1803,10,1,1124
"2204",2,4,1804,10,1,1683
"2205",2,5,1805,10,1,2604
"2206",2,3,1806,10,1,1457
"2207",2,4,1807,10,1,1802
"2208",2,5,1808,10,1,1186
"2209",2,4,1809,10,1,1603
"2210",2,2,1810,10,1,1717
"2211",2,3,1811,10,1,2270
"2212",2,3,1812,10,1,1764
"2213",2,1,1813,10,1,1123
"2214",2,5,1814,10,1,1125
"2215",2,3,1815,10,1,1873
"2216",2,2,1816,10,1,1431
"2217",2,1,1817,10,1,1163
"2218",2,3,1818,10,1,1318
"2219",2,4,1819,10,1,1237
"2220",2,4,1820,10,1,2081
"2221",2,2,1821,10,1,1340
"2222",2,1,1822,10,1,1014
"2223",2,3,1823,10,1,1514
"2224",2,2,1824,10,1,1045
"2225",2,4,1825,10,1,1695
"2226",2,5,1826,10,1,1626
"2227",2,3,1827,10,1,2079
"2228",2,5,1828,10,1,1384
"2229",2,2,1829,10,1,1453
"2230",2,2,1830,10,1,1717
"2231",2,2,1831,10,1,1767
"2232",2,2,1832,10,1,1152
"2233",2,4,1833,10,1,1625
"2234",2,4,1834,10,1,1346
"2235",2,4,1835,10,1,1447
"2236",2,5,1836,10,1,1617
"2237",2,3,1837,10,1,1495
"2238",2,5,1838,10,1,1722
"2239",2,5,1839,10,1,1448
"2240",2,4,1840,10,1,1414
"2241",2,1,1841,10,1,1197
"2242",2,1,1842,10,1,1098
"2243",2,1,1843,10,1,1104
"2244",2,2,1844,10,1,1439
"2245",2,5,1845,10,1,1682
"2246",2,2,1846,10,1,1571
"2247",2,1,1847,10,1,1156
"2248",2,4,1848,10,1,1429
"2249",2,4,1849,10,1,1123
"2250",2,3,1850,10,1,1274
"2251",2,1,1851,10,1,1147
"2252",2,5,1852,10,1,1156
"2253",2,1,1853,10,1,1447
"2254",2,5,1854,10,1,2065
"2255",2,3,1855,10,1,1292
"2256",2,2,1856,10,1,1227
"2257",2,4,1857,10,1,1457
"2258",2,3,1858,10,1,1245
"2259",2,5,1859,10,1,1127
"2260",2,3,1860,10,1,1274
"2261",2,1,1861,10,1,1200
"2262",2,2,1862,10,1,1384
"2263",2,5,1863,10,1,1539
"2264",2,3,1864,10,1,1157
"2265",2,2,1865,10,1,1234
"2266",2,2,1866,10,1,1184
"2267",2,3,1867,10,1,1868
"2268",2,5,1868,10,1,1454
"2269",2,1,1869,10,1,1104
"2270",2,4,1870,10,1,1336
"2271",2,2,1871,10,1,1571
"2272",2,1,1872,10,1,1133
"2273",2,2,1873,10,1,1162
"2274",2,1,1874,10,1,1175
"2275",2,1,1875,10,1,1123
"2276",2,3,1876,10,1,1806
"2277",2,3,1877,10,1,1464
"2278",2,4,1878,10,1,2214
"2279",2,5,1879,10,1,1413
"2280",2,5,1880,10,1,1607
"2281",2,4,1881,10,1,1416
"2282",2,4,1882,10,1,2544
"2283",2,4,1883,10,1,1587
"2284",2,5,1884,10,1,1902
"2285",2,4,1885,10,1,1603
"2286",2,2,1886,10,1,1767
"2287",2,3,1887,10,1,2456
"2288",2,1,1888,10,1,1945
"2289",2,2,1889,10,1,1395
"2290",2,3,1890,10,1,1764
"2291",2,1,1891,10,1,1077
"2292",2,1,1892,10,1,1247
"2293",2,1,1893,10,1,1109
"2294",2,4,1894,10,1,1529
"2295",2,2,1895,10,1,1334
"2296",2,1,1896,10,1,877
"2297",2,1,1897,10,1,1175
"2298",2,3,1898,10,1,1531
"2299",2,1,1899,10,1,1026
"2300",2,3,1900,10,1,1157
"2301",2,4,1901,10,1,2544
"2302",2,1,1902,10,1,1206
"2303",2,3,1903,10,1,1714
"2304",2,1,1904,10,1,1447
"2305",2,4,1905,10,1,2007
"2306",2,1,1906,10,1,1345
"2307",2,5,1907,10,1,2604
"2308",2,5,1908,10,1,1454
"2309",2,3,1909,10,1,2270
"2310",2,2,1910,10,1,1547
"2311",2,1,1911,10,1,1945
"2312",2,3,1912,10,1,1566
"2313",2,3,1913,10,1,1363
"2314",2,5,1914,10,1,1326
"2315",2,1,1915,10,1,1085
"2316",2,2,1916,10,1,1234
"2317",2,2,1917,10,1,1453
"2318",2,2,1918,10,1,1334
"2319",2,3,1919,10,1,1290
"2320",2,2,1920,10,1,1224
"2321",2,5,1921,10,1,1387
"2322",2,2,1922,10,1,1829
"2323",2,3,1923,10,1,1310
"2324",2,2,1924,10,1,1079
"2325",2,5,1925,10,1,1402
"2326",2,2,1926,10,1,2806
"2327",2,4,1927,10,1,2639
"2328",2,4,1928,10,1,2021
"2329",2,5,1929,10,1,1259
"2330",2,5,1930,10,1,1259
"2331",2,2,1931,10,1,1045
"2332",2,5,1932,10,1,1434
"2333",2,4,1933,10,1,1695
"2334",2,1,1934,10,1,1225
"2335",2,4,1935,10,1,2021
"2336",2,4,1936,10,1,1444
"2337",2,3,1937,10,1,1363
"2338",2,3,1938,10,1,1437
"2339",2,2,1939,10,1,1344
"2340",2,5,1940,10,1,1139
"2341",2,2,1941,10,1,1190
"2342",2,2,1942,10,1,1224
"2343",2,2,1943,10,1,1224
"2344",2,3,1944,10,1,1157
"2345",2,4,1945,10,1,1204
"2346",2,1,1946,10,1,1102
"2347",2,1,1947,10,1,1098
"2348",2,2,1948,10,1,2264
"2349",2,2,1949,10,1,1395
"2350",2,4,1950,10,1,1167
"2351",2,5,1951,10,1,1139
"2352",2,1,1952,10,1,1103
"2353",2,3,1953,10,1,1378
"2354",2,4,1954,10,1,1873
"2355",2,2,1955,10,1,1384
"2356",2,5,1956,10,1,1945
"2357",2,3,1957,10,1,1862
"2358",2,3,1958,10,1,1924
"2359",2,1,1959,10,1,1103
"2360",2,3,1960,10,1,2345
"2361",2,3,1961,10,1,1347
"2362",2,3,1962,10,1,1764
"2363",2,5,1963,10,1,1304
"2364",2,4,1964,10,1,1694
"2365",2,1,1965,10,1,1164
"2366",2,3,1966,10,1,2042
"2367",2,4,1967,10,1,2105
"2368",2,3,1968,10,1,1268
"2369",2,3,1969,10,1,1464
"2370",2,3,1970,10,1,1391
"2371",2,4,1971,10,1,1640
"2372",2,3,1972,10,1,1490
"2373",2,1,1973,10,1,1945
"2374",2,5,1974,10,1,1979
"2375",2,2,1975,10,1,1193
"2376",2,5,1976,10,1,1298
"2377",2,2,1977,10,1,1184
"2378",2,3,1978,10,1,2054
"2379",2,2,1979,10,1,1453
"2380",2,5,1980,10,1,1384
"2381",2,3,1981,10,1,1925
"2382",2,1,1982,10,1,1085
"2383",2,5,1983,10,1,1107
"2384",2,4,1984,10,1,1985
"2385",2,5,1985,10,1,1684
"2386",2,4,1986,10,1,1919
"2387",2,4,1987,10,1,1586
"2388",2,4,1988,10,1,1416
"2389",2,5,1989,10,1,1587
"2390",2,1,1990,10,1,1581
"2391",2,4,1991,10,1,1335
"2392",2,2,1992,10,1,1517
"2393",2,3,1993,10,1,1241
"2394",2,5,1994,10,1,1863
"2395",2,3,1995,10,1,1391
"2396",2,2,1996,10,1,1699
"2397",2,3,1997,10,1,1363
"2398",2,2,1998,10,1,1318
"2399",2,2,1999,10,1,1547
"2400",2,1,2000,11,1,1065
"2401",3,4,1,1,1,1140
"2402",3,4,2,1,1,1202
"2403",3,2,3,1,1,1023
"2404",3,3,4,1,1,2073
"2405",3,5,5,1,1,1264
"2406",3,1,6,1,1,974
"2407",3,4,7,1,1,1384
"2408",3,2,8,1,1,1085
"2409",3,5,9,1,1,1399
"2410",3,5,10,1,1,1180
"2411",3,3,11,1,1,1059
"2412",3,5,12,1,1,1217
"2413",3,2,13,1,1,1201
"2414",3,5,14,1,1,1583
"2415",3,4,15,1,1,1260
"2416",3,3,16,1,1,1025
"2417",3,4,17,1,1,1698
"2418",3,2,18,1,1,955
"2419",3,2,19,1,1,1229
"2420",3,2,20,1,1,1008
"2421",3,1,21,1,1,1029
"2422",3,2,22,1,1,1259
"2423",3,3,23,1,1,1481
"2424",3,4,24,1,1,1562
"2425",3,1,25,1,1,915
"2426",3,2,26,1,1,1144
"2427",3,4,27,1,1,1361
"2428",3,5,28,1,1,1203
"2429",3,5,29,1,1,465
"2430",3,4,30,1,1,1502
"2431",3,1,31,1,1,1084
"2432",3,3,32,1,1,1593
"2433",3,2,33,1,1,1185
"2434",3,5,34,1,1,2575
"2435",3,4,35,1,1,1919
"2436",3,1,36,1,1,1394
"2437",3,5,37,1,1,1233
"2438",3,3,38,1,1,1423
"2439",3,5,39,1,1,1272
"2440",3,1,40,1,1,919
"2441",3,4,41,1,1,1328
"2442",3,4,42,1,1,1350
"2443",3,3,43,1,1,1165
"2444",3,1,44,1,1,836
"2445",3,3,45,1,1,1224
"2446",3,5,46,1,1,1306
"2447",3,3,47,1,1,1489
"2448",3,1,48,1,1,877
"2449",3,5,49,1,1,1171
"2450",3,2,50,1,1,1472
"2451",3,4,51,1,1,1653
"2452",3,1,52,1,1,919
"2453",3,2,53,1,1,1387
"2454",3,3,54,1,1,1362
"2455",3,3,55,1,1,1259
"2456",3,1,56,1,1,1145
"2457",3,1,57,1,1,1181
"2458",3,3,58,1,1,1758
"2459",3,5,59,1,1,1559
"2460",3,1,60,1,1,1064
"2461",3,4,61,1,1,1396
"2462",3,1,62,1,1,980
"2463",3,5,63,1,1,1436
"2464",3,2,64,1,1,1232
"2465",3,4,65,1,1,2399
"2466",3,3,66,1,1,1483
"2467",3,5,67,1,1,1180
"2468",3,5,68,1,1,1282
"2469",3,1,69,1,1,1145
"2470",3,2,70,1,1,1467
"2471",3,3,71,1,1,964
"2472",3,2,72,1,1,1234
"2473",3,5,73,1,1,1182
"2474",3,2,74,1,1,1019
"2475",3,2,75,1,1,1243
"2476",3,4,76,1,1,1328
"2477",3,1,77,1,1,1266
"2478",3,3,78,1,1,1467
"2479",3,2,79,1,1,1366
"2480",3,2,80,1,1,1381
"2481",3,2,81,1,1,1163
"2482",3,5,82,1,1,1242
"2483",3,4,83,1,1,1464
"2484",3,3,84,1,1,1124
"2485",3,3,85,1,1,1758
"2486",3,5,86,1,1,1306
"2487",3,3,87,1,1,1285
"2488",3,5,88,1,1,1559
"2489",3,2,89,1,1,1048
"2490",3,3,90,1,1,1917
"2491",3,1,91,1,1,1362
"2492",3,3,92,1,1,1300
"2493",3,1,93,1,1,1026
"2494",3,3,94,1,1,1421
"2495",3,3,95,1,1,1602
"2496",3,1,96,1,1,1213
"2497",3,1,97,1,1,1026
"2498",3,1,98,1,1,1042
"2499",3,5,99,1,1,1443
"2500",3,1,100,1,1,1087
"2501",3,3,101,1,1,1381
"2502",3,1,102,1,1,915
"2503",3,2,103,1,1,1048
"2504",3,2,104,1,1,1184
"2505",3,3,105,1,1,1311
"2506",3,3,106,1,1,1564
"2507",3,1,107,1,1,904
"2508",3,4,108,1,1,973
"2509",3,2,109,1,1,1047
"2510",3,5,110,1,1,1093
"2511",3,4,111,1,1,1276
"2512",3,1,112,1,1,1087
"2513",3,5,113,1,1,1063
"2514",3,4,114,1,1,823
"2515",3,2,115,1,1,1042
"2516",3,3,116,1,1,1435
"2517",3,5,117,1,1,1136
"2518",3,5,118,1,1,1225
"2519",3,4,119,1,1,1577
"2520",3,5,120,1,1,1052
"2521",3,4,121,1,1,2128
"2522",3,1,122,1,1,893
"2523",3,1,123,1,1,1207
"2524",3,2,124,1,1,1323
"2525",3,4,125,1,1,1342
"2526",3,5,126,1,1,1616
"2527",3,3,127,1,1,1498
"2528",3,5,128,1,1,1124
"2529",3,5,129,1,1,1063
"2530",3,2,130,1,1,918
"2531",3,5,131,1,1,1323
"2532",3,1,132,1,1,1266
"2533",3,5,133,1,1,1247
"2534",3,5,134,1,1,1142
"2535",3,1,135,1,1,861
"2536",3,1,136,1,1,1094
"2537",3,2,137,1,1,1153
"2538",3,4,138,1,1,1464
"2539",3,3,139,1,1,1224
"2540",3,5,140,1,1,1242
"2541",3,1,141,1,1,980
"2542",3,5,142,1,1,1855
"2543",3,3,143,1,1,1780
"2544",3,1,144,1,1,1751
"2545",3,1,145,1,1,1183
"2546",3,3,146,1,1,1362
"2547",3,1,147,1,1,1265
"2548",3,2,148,1,1,1023
"2549",3,1,149,1,1,1084
"2550",3,1,150,1,1,962
"2551",3,5,151,1,1,1203
"2552",3,5,152,1,1,1356
"2553",3,4,153,1,1,1524
"2554",3,1,154,1,1,836
"2555",3,3,155,1,1,1137
"2556",3,5,156,1,1,1180
"2557",3,2,157,1,1,1085
"2558",3,3,158,1,1,1066
"2559",3,2,159,1,1,779
"2560",3,1,160,1,1,1064
"2561",3,2,161,1,1,1184
"2562",3,3,162,1,1,1421
"2563",3,5,163,1,1,1100
"2564",3,5,164,1,1,1163
"2565",3,3,165,1,1,774
"2566",3,4,166,1,1,1384
"2567",3,4,167,1,1,1128
"2568",3,1,168,1,1,926
"2569",3,3,169,1,1,1300
"2570",3,4,170,1,1,1684
"2571",3,5,171,1,1,1062
"2572",3,2,172,1,1,1042
"2573",3,5,173,1,1,1733
"2574",3,3,174,1,1,1362
"2575",3,2,175,1,1,908
"2576",3,5,176,1,1,1518
"2577",3,1,177,1,1,1751
"2578",3,1,178,1,1,914
"2579",3,5,179,1,1,1399
"2580",3,4,180,1,1,1396
"2581",3,1,181,1,1,947
"2582",3,4,182,1,1,1577
"2583",3,4,183,1,1,943
"2584",3,1,184,1,1,1029
"2585",3,3,185,1,1,2175
"2586",3,2,186,1,1,908
"2587",3,2,187,1,1,1529
"2588",3,4,188,1,1,1283
"2589",3,2,189,1,1,1439
"2590",3,1,190,1,1,855
"2591",3,5,191,1,1,1203
"2592",3,2,192,1,1,1019
"2593",3,5,193,1,1,1313
"2594",3,2,194,1,1,1047
"2595",3,5,195,1,1,1244
"2596",3,2,196,1,1,1259
"2597",3,3,197,1,1,1373
"2598",3,4,198,1,1,1147
"2599",3,2,199,1,1,955
"2600",3,1,200,2,1,1023
"2601",3,1,201,2,1,1274
"2602",3,2,202,2,1,1217
"2603",3,2,203,2,1,1403
"2604",3,2,204,2,1,1234
"2605",3,3,205,2,1,1237
"2606",3,1,206,2,1,1075
"2607",3,1,207,2,1,1543
"2608",3,2,208,2,1,1047
"2609",3,5,209,2,1,1323
"2610",3,3,210,2,1,1385
"2611",3,5,211,2,1,1244
"2612",3,5,212,2,1,1264
"2613",3,1,213,2,1,894
"2614",3,2,214,2,1,1124
"2615",3,1,215,2,1,1543
"2616",3,1,216,2,1,986
"2617",3,2,217,2,1,994
"2618",3,4,218,2,1,1180
"2619",3,1,219,2,1,1029
"2620",3,2,220,2,1,1381
"2621",3,2,221,2,1,1098
"2622",3,4,222,2,1,1059
"2623",3,1,223,2,1,1201
"2624",3,2,224,2,1,1055
"2625",3,1,225,2,1,962
"2626",3,5,226,2,1,1306
"2627",3,5,227,2,1,1504
"2628",3,2,228,2,1,1439
"2629",3,1,229,2,1,1023
"2630",3,5,230,2,1,924
"2631",3,3,231,2,1,1149
"2632",3,2,232,2,1,1115
"2633",3,2,233,2,1,1100
"2634",3,2,234,2,1,925
"2635",3,5,235,2,1,1100
"2636",3,1,236,2,1,1274
"2637",3,4,237,2,1,1396
"2638",3,5,238,2,1,1109
"2639",3,4,239,2,0,NA
"2640",3,3,240,2,1,1446
"2641",3,3,241,2,1,1421
"2642",3,5,242,2,1,1323
"2643",3,5,243,2,1,1203
"2644",3,1,244,2,1,999
"2645",3,5,245,2,1,1282
"2646",3,3,246,2,1,1165
"2647",3,4,247,2,1,1022
"2648",3,2,248,2,1,1225
"2649",3,4,249,2,1,1502
"2650",3,4,250,2,1,1248
"2651",3,2,251,2,1,1467
"2652",3,4,252,2,1,1260
"2653",3,3,253,2,1,1149
"2654",3,4,254,2,1,1543
"2655",3,2,255,2,1,1232
"2656",3,3,256,2,1,774
"2657",3,5,257,2,1,1285
"2658",3,4,258,2,1,2735
"2659",3,5,259,2,1,905
"2660",3,5,260,2,1,1226
"2661",3,4,261,2,1,1140
"2662",3,3,262,2,1,1593
"2663",3,2,263,2,1,955
"2664",3,1,264,2,1,1213
"2665",3,1,265,2,1,986
"2666",3,2,266,2,1,1358
"2667",3,3,267,2,1,564
"2668",3,5,268,2,1,1101
"2669",3,5,269,2,1,1513
"2670",3,2,270,2,1,1124
"2671",3,5,271,2,1,855
"2672",3,1,272,2,1,1334
"2673",3,3,273,2,1,1311
"2674",3,5,274,2,1,1623
"2675",3,2,275,2,1,1387
"2676",3,1,276,2,1,961
"2677",3,5,277,2,1,1206
"2678",3,1,278,2,1,1121
"2679",3,1,279,2,1,861
"2680",3,3,280,2,1,1159
"2681",3,3,281,2,1,1481
"2682",3,3,282,2,1,1917
"2683",3,5,283,2,1,1265
"2684",3,2,284,2,1,987
"2685",3,4,285,2,1,1507
"2686",3,4,286,2,1,1203
"2687",3,3,287,2,1,1628
"2688",3,4,288,2,1,1620
"2689",3,3,289,2,1,1066
"2690",3,3,290,2,1,1373
"2691",3,2,291,2,1,1247
"2692",3,5,292,2,1,1809
"2693",3,5,293,2,1,1145
"2694",3,3,294,2,1,1381
"2695",3,3,295,2,1,1758
"2696",3,1,296,2,1,1207
"2697",3,4,297,2,1,1128
"2698",3,4,298,2,1,1779
"2699",3,5,299,2,1,1504
"2700",3,4,300,2,1,1473
"2701",3,2,301,2,1,1019
"2702",3,4,302,2,1,1243
"2703",3,5,303,2,1,1436
"2704",3,3,304,2,1,935
"2705",3,2,305,2,1,1116
"2706",3,1,306,2,1,1029
"2707",3,3,307,2,1,1294
"2708",3,2,308,2,1,955
"2709",3,3,309,2,1,1092
"2710",3,5,310,2,1,1145
"2711",3,4,311,2,1,923
"2712",3,2,312,2,1,1201
"2713",3,2,313,2,1,1393
"2714",3,1,314,2,1,976
"2715",3,1,315,2,1,991
"2716",3,1,316,2,1,1064
"2717",3,1,317,2,1,1047
"2718",3,2,318,2,1,1284
"2719",3,2,319,2,1,1140
"2720",3,3,320,2,1,1513
"2721",3,1,321,2,1,1266
"2722",3,3,322,2,1,1281
"2723",3,2,323,2,1,1007
"2724",3,3,324,2,1,2175
"2725",3,1,325,2,1,1066
"2726",3,3,326,2,1,1514
"2727",3,3,327,2,1,964
"2728",3,5,328,2,1,1323
"2729",3,2,329,2,1,2072
"2730",3,2,330,2,1,1023
"2731",3,2,331,2,1,1280
"2732",3,1,332,2,1,911
"2733",3,4,333,2,1,1926
"2734",3,2,334,2,1,1387
"2735",3,1,335,2,1,921
"2736",3,2,336,2,1,1247
"2737",3,4,337,2,1,1306
"2738",3,2,338,2,1,1163
"2739",3,1,339,2,1,926
"2740",3,4,340,2,1,1117
"2741",3,1,341,2,1,1243
"2742",3,2,342,2,1,1294
"2743",3,1,343,2,1,991
"2744",3,5,344,2,1,1247
"2745",3,3,345,2,1,774
"2746",3,5,346,2,1,1399
"2747",3,1,347,2,1,903
"2748",3,4,348,2,1,1059
"2749",3,3,349,2,1,1243
"2750",3,4,350,2,1,1328
"2751",3,1,351,2,1,546
"2752",3,2,352,2,1,1381
"2753",3,3,353,2,1,1263
"2754",3,1,354,2,1,1066
"2755",3,5,355,2,1,1140
"2756",3,1,356,2,1,1047
"2757",3,3,357,2,1,1092
"2758",3,4,358,2,1,1779
"2759",3,2,359,2,1,1137
"2760",3,5,360,2,1,1272
"2761",3,2,361,2,1,1294
"2762",3,2,362,2,1,1073
"2763",3,3,363,2,1,1124
"2764",3,3,364,2,1,1013
"2765",3,3,365,2,1,1065
"2766",3,2,366,2,1,1232
"2767",3,3,367,2,1,1296
"2768",3,4,368,2,1,1206
"2769",3,4,369,2,1,931
"2770",3,1,370,2,1,1023
"2771",3,2,371,2,1,1276
"2772",3,5,372,2,1,1034
"2773",3,3,373,2,1,1186
"2774",3,5,374,2,1,1182
"2775",3,5,375,2,1,1140
"2776",3,4,376,2,1,1620
"2777",3,4,377,2,1,1059
"2778",3,5,378,2,1,1243
"2779",3,5,379,2,1,965
"2780",3,2,380,2,1,1323
"2781",3,3,381,2,1,1385
"2782",3,4,382,2,1,1384
"2783",3,4,383,2,1,1276
"2784",3,1,384,2,1,1207
"2785",3,2,385,2,1,1274
"2786",3,5,386,2,1,1323
"2787",3,5,387,2,1,1180
"2788",3,5,388,2,1,465
"2789",3,1,389,2,1,999
"2790",3,3,390,2,1,1323
"2791",3,5,391,2,1,1623
"2792",3,4,392,2,1,1303
"2793",3,5,393,2,1,1549
"2794",3,1,394,2,1,1026
"2795",3,3,395,2,1,1473
"2796",3,5,396,2,1,2051
"2797",3,3,397,2,1,1281
"2798",3,3,398,2,1,1294
"2799",3,4,399,2,1,1100
"2800",3,5,400,3,1,1180
"2801",3,3,401,3,1,1044
"2802",3,4,402,3,1,1303
"2803",3,3,403,3,1,1317
"2804",3,1,404,3,1,824
"2805",3,1,405,3,1,919
"2806",3,4,406,3,1,1202
"2807",3,1,407,3,1,1066
"2808",3,4,408,3,1,1350
"2809",3,2,409,3,1,1598
"2810",3,2,410,3,1,1259
"2811",3,3,411,3,1,1385
"2812",3,4,412,3,1,1405
"2813",3,1,413,3,1,1243
"2814",3,3,414,3,1,1296
"2815",3,4,415,3,1,1606
"2816",3,2,416,3,1,1439
"2817",3,4,417,3,1,1260
"2818",3,1,418,3,1,1243
"2819",3,4,419,3,1,1517
"2820",3,2,420,3,1,1280
"2821",3,4,421,3,1,1022
"2822",3,5,422,3,1,1140
"2823",3,3,423,3,1,1281
"2824",3,4,424,3,1,1620
"2825",3,5,425,3,1,1225
"2826",3,3,426,3,1,1059
"2827",3,5,427,3,1,1163
"2828",3,5,428,3,1,1109
"2829",3,5,429,3,1,943
"2830",3,5,430,3,1,1163
"2831",3,4,431,3,1,1473
"2832",3,4,432,3,1,1543
"2833",3,5,433,3,1,1233
"2834",3,2,434,3,1,1472
"2835",3,5,435,3,1,1181
"2836",3,5,436,3,1,2051
"2837",3,4,437,3,1,1162
"2838",3,4,438,3,1,1405
"2839",3,3,439,3,1,1347
"2840",3,1,440,3,1,1241
"2841",3,1,441,3,1,947
"2842",3,3,442,3,1,1290
"2843",3,1,443,3,1,1377
"2844",3,4,444,3,1,1103
"2845",3,3,445,3,1,1362
"2846",3,1,446,3,1,926
"2847",3,3,447,3,1,1347
"2848",3,5,448,3,1,1285
"2849",3,1,449,3,1,1042
"2850",3,2,450,3,1,1678
"2851",3,5,451,3,1,1101
"2852",3,4,452,3,1,1283
"2853",3,5,453,3,0,NA
"2854",3,5,454,3,1,465
"2855",3,5,455,3,1,1306
"2856",3,4,456,3,1,1517
"2857",3,1,457,3,1,1266
"2858",3,3,458,3,1,1955
"2859",3,5,459,3,1,1356
"2860",3,4,460,3,1,1577
"2861",3,5,461,3,1,1243
"2862",3,3,462,3,1,1448
"2863",3,1,463,3,1,1023
"2864",3,4,464,3,1,1919
"2865",3,2,465,3,1,1276
"2866",3,2,466,3,1,1243
"2867",3,3,467,3,1,1178
"2868",3,3,468,3,1,1165
"2869",3,2,469,3,1,1233
"2870",3,5,470,3,1,1226
"2871",3,3,471,3,1,1404
"2872",3,4,472,3,1,1123
"2873",3,5,473,3,1,1382
"2874",3,5,474,3,1,1313
"2875",3,4,475,3,1,1180
"2876",3,1,476,3,1,923
"2877",3,3,477,3,1,1483
"2878",3,4,478,3,1,1606
"2879",3,4,479,3,1,1203
"2880",3,2,480,3,1,1137
"2881",3,4,481,3,1,1926
"2882",3,4,482,3,1,1202
"2883",3,4,483,3,1,1361
"2884",3,4,484,3,1,1919
"2885",3,5,485,3,1,784
"2886",3,1,486,3,1,1042
"2887",3,4,487,3,1,1303
"2888",3,5,488,3,1,1243
"2889",3,4,489,3,1,1328
"2890",3,4,490,3,1,1698
"2891",3,3,491,3,1,1445
"2892",3,4,492,3,1,1606
"2893",3,5,493,3,1,1225
"2894",3,2,494,3,1,987
"2895",3,4,495,3,1,1248
"2896",3,5,496,3,1,1224
"2897",3,2,497,3,1,1598
"2898",3,1,498,3,1,962
"2899",3,4,499,3,1,1778
"2900",3,2,500,3,1,1233
"2901",3,3,501,3,1,1423
"2902",3,1,502,3,1,986
"2903",3,5,503,3,1,1306
"2904",3,4,504,3,1,1028
"2905",3,3,505,3,1,1325
"2906",3,4,506,3,1,1028
"2907",3,4,507,3,1,1425
"2908",3,2,508,3,1,1201
"2909",3,1,509,3,1,846
"2910",3,2,510,3,1,1417
"2911",3,3,511,3,1,1259
"2912",3,1,512,3,1,1362
"2913",3,5,513,3,1,1100
"2914",3,2,514,3,1,1025
"2915",3,2,515,3,1,1704
"2916",3,1,516,3,1,846
"2917",3,5,517,3,1,1327
"2918",3,3,518,3,1,1481
"2919",3,2,519,3,1,1193
"2920",3,2,520,3,1,1137
"2921",3,3,521,3,1,1381
"2922",3,4,522,3,1,2128
"2923",3,2,523,3,1,1229
"2924",3,2,524,3,1,929
"2925",3,5,525,3,1,1226
"2926",3,2,526,3,1,1124
"2927",3,1,527,3,1,855
"2928",3,5,528,3,1,1436
"2929",3,5,529,3,1,965
"2930",3,4,530,3,1,1698
"2931",3,4,531,3,1,1128
"2932",3,5,532,3,1,1136
"2933",3,5,533,3,0,NA
"2934",3,2,534,3,1,1023
"2935",3,2,535,3,1,1116
"2936",3,5,536,3,1,1217
"2937",3,3,537,3,1,1237
"2938",3,5,538,3,1,1109
"2939",3,2,539,3,1,1115
"2940",3,2,540,3,1,1276
"2941",3,3,541,3,1,1322
"2942",3,4,542,3,1,1684
"2943",3,5,543,3,1,1600
"2944",3,4,544,3,1,1248
"2945",3,4,545,3,1,1406
"2946",3,5,546,3,1,965
"2947",3,2,547,3,1,1184
"2948",3,4,548,3,1,1502
"2949",3,1,549,3,1,1155
"2950",3,4,550,3,1,1206
"2951",3,5,551,3,1,1265
"2952",3,2,552,3,1,1023
"2953",3,2,553,3,1,1047
"2954",3,4,554,3,1,996
"2955",3,2,555,3,1,1153
"2956",3,3,556,3,1,1362
"2957",3,3,557,3,1,1917
"2958",3,1,558,3,1,915
"2959",3,2,559,3,1,1098
"2960",3,2,560,3,1,1234
"2961",3,5,561,3,1,1265
"2962",3,2,562,3,1,1184
"2963",3,2,563,3,1,1598
"2964",3,4,564,3,1,1306
"2965",3,3,565,3,1,1175
"2966",3,1,566,3,1,958
"2967",3,4,567,3,1,1247
"2968",3,5,568,3,1,1303
"2969",3,5,569,3,1,1382
"2970",3,1,570,3,1,893
"2971",3,1,571,3,1,1023
"2972",3,2,572,3,1,1181
"2973",3,3,573,3,1,1322
"2974",3,3,574,3,1,1780
"2975",3,3,575,3,1,1593
"2976",3,1,576,3,1,991
"2977",3,5,577,3,1,1034
"2978",3,4,578,3,1,1396
"2979",3,1,579,3,1,1079
"2980",3,4,580,3,1,1203
"2981",3,4,581,3,1,1342
"2982",3,2,582,3,1,1704
"2983",3,2,583,3,1,1227
"2984",3,5,584,3,1,1819
"2985",3,5,585,3,1,1616
"2986",3,3,586,3,1,1283
"2987",3,1,587,3,1,980
"2988",3,2,588,3,1,1472
"2989",3,3,589,3,1,1285
"2990",3,5,590,3,1,1171
"2991",3,2,591,3,1,1280
"2992",3,5,592,3,1,1733
"2993",3,4,593,3,1,1162
"2994",3,1,594,3,1,1377
"2995",3,3,595,3,1,1044
"2996",3,5,596,3,1,1034
"2997",3,2,597,3,1,1019
"2998",3,1,598,3,1,962
"2999",3,2,599,3,1,1137
"3000",3,4,600,4,1,2128
"3001",3,4,601,4,1,996
"3002",3,5,602,4,1,1181
"3003",3,2,603,4,1,1417
"3004",3,1,604,4,1,1042
"3005",3,5,605,4,1,1616
"3006",3,3,606,4,1,1026
"3007",3,5,607,4,1,1583
"3008",3,1,608,4,1,1183
"3009",3,2,609,4,1,1284
"3010",3,2,610,4,1,1323
"3011",3,3,611,4,1,935
"3012",3,3,612,4,1,1243
"3013",3,4,613,4,1,1653
"3014",3,5,614,4,1,1182
"3015",3,4,615,4,1,1103
"3016",3,3,616,4,1,1917
"3017",3,2,617,4,1,1100
"3018",3,2,618,4,1,1042
"3019",3,5,619,4,1,1124
"3020",3,3,620,4,1,1026
"3021",3,1,621,4,1,980
"3022",3,1,622,4,1,1241
"3023",3,3,623,4,1,1435
"3024",3,2,624,4,1,1025
"3025",3,4,625,4,1,1406
"3026",3,5,626,4,1,1142
"3027",3,4,627,4,1,1653
"3028",3,5,628,4,1,1244
"3029",3,2,629,4,1,1007
"3030",3,5,630,4,1,1285
"3031",3,5,631,4,1,990
"3032",3,2,632,4,1,1113
"3033",3,1,633,4,1,1105
"3034",3,1,634,4,1,1543
"3035",3,1,635,4,1,1047
"3036",3,1,636,4,1,1394
"3037",3,4,637,4,1,996
"3038",3,1,638,4,1,1047
"3039",3,4,639,4,1,1517
"3040",3,1,640,4,1,1181
"3041",3,1,641,4,1,1019
"3042",3,5,642,4,1,1819
"3043",3,4,643,4,1,1095
"3044",3,4,644,4,1,1577
"3045",3,2,645,4,1,1652
"3046",3,2,646,4,1,1393
"3047",3,1,647,4,1,1207
"3048",3,3,648,4,1,1362
"3049",3,2,649,4,1,1229
"3050",3,5,650,4,1,1180
"3051",3,3,651,4,1,1059
"3052",3,3,652,4,1,564
"3053",3,5,653,4,1,1206
"3054",3,1,654,4,1,946
"3055",3,5,655,4,1,924
"3056",3,4,656,4,1,1103
"3057",3,1,657,4,1,914
"3058",3,4,658,4,1,2142
"3059",3,1,659,4,1,1019
"3060",3,1,660,4,1,1334
"3061",3,3,661,4,1,1186
"3062",3,4,662,4,1,1716
"3063",3,3,663,4,1,1186
"3064",3,1,664,4,1,921
"3065",3,5,665,4,1,1034
"3066",3,5,666,4,1,1323
"3067",3,4,667,4,1,1926
"3068",3,1,668,4,1,937
"3069",3,2,669,4,1,1217
"3070",3,3,670,4,1,1159
"3071",3,1,671,4,1,1183
"3072",3,3,672,4,1,1564
"3073",3,5,673,4,1,1436
"3074",3,3,674,4,1,1634
"3075",3,3,675,4,1,1263
"3076",3,2,676,4,1,1042
"3077",3,3,677,4,1,1013
"3078",3,1,678,4,1,1084
"3079",3,5,679,4,1,1242
"3080",3,3,680,4,1,1628
"3081",3,4,681,4,1,1147
"3082",3,4,682,4,1,1117
"3083",3,3,683,4,1,1513
"3084",3,2,684,4,1,1481
"3085",3,2,685,4,1,2072
"3086",3,3,686,4,1,1281
"3087",3,3,687,4,1,1483
"3088",3,1,688,4,1,786
"3089",3,1,689,4,1,846
"3090",3,3,690,4,1,1456
"3091",3,4,691,4,1,1377
"3092",3,1,692,4,1,877
"3093",3,3,693,4,1,564
"3094",3,3,694,4,1,1446
"3095",3,5,695,4,1,1145
"3096",3,1,696,4,1,1042
"3097",3,2,697,4,1,1704
"3098",3,3,698,4,1,1149
"3099",3,5,699,4,1,1247
"3100",3,3,700,4,1,1283
"3101",3,2,701,4,1,1201
"3102",3,1,702,4,1,1083
"3103",3,1,703,4,1,1019
"3104",3,1,704,4,1,894
"3105",3,2,705,4,1,1678
"3106",3,4,706,4,1,1653
"3107",3,5,707,4,1,1233
"3108",3,5,708,4,1,2575
"3109",3,2,709,4,1,1294
"3110",3,1,710,4,1,948
"3111",3,4,711,4,1,1059
"3112",3,5,712,4,1,1151
"3113",3,4,713,4,1,1577
"3114",3,4,714,4,1,1716
"3115",3,1,715,4,1,846
"3116",3,3,716,4,1,1498
"3117",3,3,717,4,1,1066
"3118",3,4,718,4,1,1425
"3119",3,1,719,4,1,1274
"3120",3,5,720,4,1,1224
"3121",3,5,721,4,1,990
"3122",3,3,722,4,1,1347
"3123",3,3,723,4,1,1224
"3124",3,2,724,4,1,1274
"3125",3,4,725,4,1,1778
"3126",3,5,726,4,1,1809
"3127",3,2,727,4,1,908
"3128",3,4,728,4,1,1303
"3129",3,5,729,4,1,465
"3130",3,1,730,4,1,1121
"3131",3,4,731,4,1,2735
"3132",3,3,732,4,1,2073
"3133",3,2,733,4,1,1366
"3134",3,5,734,4,1,1304
"3135",3,2,735,4,1,1100
"3136",3,1,736,4,1,1394
"3137",3,2,737,4,1,1023
"3138",3,5,738,4,1,1306
"3139",3,1,739,4,1,964
"3140",3,4,740,4,1,1128
"3141",3,1,741,4,1,1201
"3142",3,3,742,4,1,1237
"3143",3,2,743,4,1,1008
"3144",3,3,744,4,1,1362
"3145",3,3,745,4,1,1178
"3146",3,2,746,4,1,1234
"3147",3,4,747,4,1,1328
"3148",3,3,748,4,1,1026
"3149",3,5,749,4,1,1062
"3150",3,1,750,4,1,1047
"3151",3,1,751,4,1,1094
"3152",3,3,752,4,1,1474
"3153",3,1,753,4,1,1213
"3154",3,4,754,4,1,1206
"3155",3,4,755,4,1,996
"3156",3,1,756,4,1,937
"3157",3,5,757,4,1,1518
"3158",3,2,758,4,1,1529
"3159",3,2,759,4,1,1229
"3160",3,1,760,4,1,1075
"3161",3,1,761,4,1,1064
"3162",3,4,762,4,1,1243
"3163",3,4,763,4,1,2399
"3164",3,2,764,4,1,1098
"3165",3,2,765,4,1,1140
"3166",3,1,766,4,1,1181
"3167",3,2,767,4,1,1193
"3168",3,4,768,4,1,1328
"3169",3,2,769,4,1,977
"3170",3,2,770,4,1,1181
"3171",3,3,771,4,1,1300
"3172",3,3,772,4,1,1385
"3173",3,3,773,4,1,1178
"3174",3,5,774,4,1,1052
"3175",3,5,775,4,1,1233
"3176",3,2,776,4,1,1116
"3177",3,4,777,4,1,1342
"3178",3,4,778,4,1,1405
"3179",3,1,779,4,1,1183
"3180",3,1,780,4,1,1026
"3181",3,1,781,4,1,941
"3182",3,3,782,4,1,564
"3183",3,2,783,4,1,1023
"3184",3,1,784,4,1,1023
"3185",3,4,785,4,1,1350
"3186",3,5,786,4,1,1549
"3187",3,5,787,4,1,1306
"3188",3,2,788,4,1,1042
"3189",3,2,789,4,1,779
"3190",3,5,790,4,1,1443
"3191",3,3,791,4,1,1435
"3192",3,5,792,4,1,1264
"3193",3,3,793,4,1,1317
"3194",3,4,794,4,1,2128
"3195",3,2,795,4,1,1302
"3196",3,5,796,4,1,1327
"3197",3,3,797,4,1,1421
"3198",3,1,798,4,1,1201
"3199",3,2,799,4,1,1387
"3200",3,1,800,5,1,1155
"3201",3,3,801,5,1,1698
"3202",3,4,802,5,1,1180
"3203",3,4,803,5,1,1562
"3204",3,3,804,5,1,1404
"3205",3,3,805,5,1,1290
"3206",3,5,806,5,1,1142
"3207",3,1,807,5,1,1079
"3208",3,1,808,5,1,976
"3209",3,5,809,5,1,965
"3210",3,3,810,5,1,774
"3211",3,2,811,5,1,1181
"3212",3,5,812,5,1,1600
"3213",3,1,813,5,1,926
"3214",3,4,814,5,1,1344
"3215",3,3,815,5,1,1083
"3216",3,2,816,5,1,1403
"3217",3,4,817,5,1,1507
"3218",3,4,818,5,0,NA
"3219",3,3,819,5,1,1514
"3220",3,1,820,5,1,1094
"3221",3,2,821,5,1,1042
"3222",3,5,822,5,1,1062
"3223",3,3,823,5,1,1263
"3224",3,1,824,5,1,1362
"3225",3,3,825,5,1,1178
"3226",3,1,826,5,1,965
"3227",3,4,827,5,1,1543
"3228",3,4,828,5,1,1962
"3229",3,3,829,5,1,1083
"3230",3,1,830,5,1,1241
"3231",3,2,831,5,1,1113
"3232",3,2,832,5,1,1225
"3233",3,1,833,5,1,1213
"3234",3,1,834,5,1,877
"3235",3,4,835,5,1,1264
"3236",3,4,836,5,1,1147
"3237",3,2,837,5,1,1144
"3238",3,4,838,5,1,1562
"3239",3,3,839,5,1,2073
"3240",3,1,840,5,1,941
"3241",3,4,841,5,1,1203
"3242",3,4,842,5,1,2163
"3243",3,1,843,5,1,948
"3244",3,5,844,5,1,1285
"3245",3,1,845,5,1,1751
"3246",3,5,846,5,1,1600
"3247",3,1,847,5,1,1377
"3248",3,5,848,5,1,1327
"3249",3,5,849,5,1,1819
"3250",3,3,850,5,1,2073
"3251",3,1,851,5,1,953
"3252",3,4,852,5,1,1684
"3253",3,1,853,5,1,1183
"3254",3,4,854,5,1,823
"3255",3,2,855,5,1,1439
"3256",3,1,856,5,1,894
"3257",3,3,857,5,1,1347
"3258",3,4,858,5,1,1202
"3259",3,3,859,5,1,1448
"3260",3,1,860,5,1,958
"3261",3,2,861,5,1,1185
"3262",3,3,862,5,1,1165
"3263",3,4,863,5,1,1180
"3264",3,2,864,5,1,1113
"3265",3,2,865,5,1,1652
"3266",3,3,866,5,1,1294
"3267",3,1,867,5,1,855
"3268",3,2,868,5,1,1704
"3269",3,3,869,5,1,1474
"3270",3,1,870,5,1,962
"3271",3,2,871,5,1,1074
"3272",3,3,872,5,1,1362
"3273",3,5,873,5,1,1052
"3274",3,4,874,5,1,923
"3275",3,1,875,5,1,786
"3276",3,5,876,5,1,965
"3277",3,5,877,5,1,1101
"3278",3,4,878,5,1,1962
"3279",3,5,879,5,1,1323
"3280",3,5,880,5,1,1217
"3281",3,1,881,5,1,914
"3282",3,4,882,5,1,1059
"3283",3,3,883,5,1,1564
"3284",3,4,884,5,1,1123
"3285",3,1,885,5,1,1543
"3286",3,3,886,5,1,1044
"3287",3,5,887,5,1,1313
"3288",3,2,888,5,1,1008
"3289",3,4,889,5,1,1094
"3290",3,2,890,5,1,1227
"3291",3,5,891,5,1,1243
"3292",3,2,892,5,1,1074
"3293",3,2,893,5,1,1163
"3294",3,4,894,5,1,2142
"3295",3,2,895,5,1,1113
"3296",3,1,896,5,1,1079
"3297",3,5,897,5,1,1203
"3298",3,2,898,5,1,908
"3299",3,2,899,5,1,1481
"3300",3,2,900,5,1,1115
"3301",3,1,901,5,1,941
"3302",3,2,902,5,1,1247
"3303",3,5,903,5,1,1513
"3304",3,4,904,5,1,1517
"3305",3,4,905,5,1,1066
"3306",3,3,906,5,1,1404
"3307",3,3,907,5,1,1065
"3308",3,4,908,5,1,1425
"3309",3,2,909,5,1,1652
"3310",3,3,910,5,1,1698
"3311",3,4,911,5,1,1620
"3312",3,5,912,5,1,1549
"3313",3,2,913,5,1,1193
"3314",3,1,914,5,1,943
"3315",3,4,915,5,1,1577
"3316",3,2,916,5,1,1379
"3317",3,1,917,5,1,1155
"3318",3,1,918,5,1,1083
"3319",3,5,919,5,1,1282
"3320",3,1,920,5,1,964
"3321",3,5,921,5,1,924
"3322",3,1,922,5,1,904
"3323",3,4,923,5,1,1123
"3324",3,2,924,5,1,1042
"3325",3,3,925,5,1,1294
"3326",3,1,926,5,1,824
"3327",3,3,927,5,1,1290
"3328",3,5,928,5,1,1243
"3329",3,4,929,5,1,1778
"3330",3,5,930,5,1,1063
"3331",3,5,931,5,1,1855
"3332",3,3,932,5,1,935
"3333",3,2,933,5,1,918
"3334",3,3,934,5,1,1092
"3335",3,1,935,5,1,1241
"3336",3,2,936,5,1,1604
"3337",3,4,937,5,1,1382
"3338",3,1,938,5,1,947
"3339",3,2,939,5,1,1185
"3340",3,2,940,5,1,1243
"3341",3,4,941,5,1,1344
"3342",3,2,942,5,1,1604
"3343",3,4,943,5,1,1059
"3344",3,2,944,5,1,1048
"3345",3,2,945,5,1,1604
"3346",3,2,946,5,1,779
"3347",3,3,947,5,1,1263
"3348",3,3,948,5,1,964
"3349",3,1,949,5,1,926
"3350",3,2,950,5,1,1140
"3351",3,4,951,5,1,1162
"3352",3,3,952,5,1,1026
"3353",3,5,953,5,1,1179
"3354",3,1,954,5,1,943
"3355",3,4,955,5,1,1162
"3356",3,3,956,5,1,1285
"3357",3,4,957,5,1,1425
"3358",3,1,958,5,1,915
"3359",3,3,959,5,1,1513
"3360",3,2,960,5,1,1227
"3361",3,1,961,5,1,546
"3362",3,4,962,5,1,1577
"3363",3,4,963,5,1,1248
"3364",3,3,964,5,1,1243
"3365",3,2,965,5,1,1042
"3366",3,1,966,5,1,974
"3367",3,4,967,5,1,1205
"3368",3,5,968,5,1,1052
"3369",3,3,969,5,1,1698
"3370",3,3,970,5,1,1137
"3371",3,4,971,5,1,1243
"3372",3,4,972,5,1,923
"3373",3,4,973,5,1,1283
"3374",3,5,974,5,1,943
"3375",3,3,975,5,1,1446
"3376",3,3,976,5,1,1092
"3377",3,2,977,5,1,1042
"3378",3,5,978,5,1,1101
"3379",3,2,979,5,1,1274
"3380",3,5,980,5,1,1513
"3381",3,1,981,5,1,986
"3382",3,2,982,5,1,1055
"3383",3,2,983,5,1,918
"3384",3,5,984,5,1,1179
"3385",3,3,985,5,1,1593
"3386",3,5,986,5,1,990
"3387",3,2,987,5,1,987
"3388",3,1,988,5,1,1023
"3389",3,2,989,5,1,1358
"3390",3,3,990,5,1,2175
"3391",3,4,991,5,1,1247
"3392",3,5,992,5,1,1309
"3393",3,1,993,5,1,914
"3394",3,1,994,5,1,1243
"3395",3,2,995,5,1,1247
"3396",3,5,996,5,1,1062
"3397",3,3,997,5,1,1513
"3398",3,4,998,5,1,931
"3399",3,1,999,5,1,964
"3400",3,4,1000,6,1,1328
"3401",3,3,1001,6,1,1323
"3402",3,1,1002,6,1,1042
"3403",3,3,1003,6,1,964
"3404",3,3,1004,6,1,1362
"3405",3,5,1005,6,1,1062
"3406",3,2,1006,6,1,1302
"3407",3,2,1007,6,1,1227
"3408",3,2,1008,6,1,1358
"3409",3,2,1009,6,1,1403
"3410",3,5,1010,6,1,1382
"3411",3,1,1011,6,1,1083
"3412",3,1,1012,6,1,861
"3413",3,2,1013,6,1,1217
"3414",3,5,1014,6,1,1142
"3415",3,2,1015,6,1,1055
"3416",3,4,1016,6,1,1384
"3417",3,1,1017,6,1,903
"3418",3,4,1018,6,1,1543
"3419",3,5,1019,6,1,1303
"3420",3,1,1020,6,1,861
"3421",3,4,1021,6,1,1279
"3422",3,3,1022,6,1,1435
"3423",3,2,1023,6,1,1247
"3424",3,4,1024,6,1,1264
"3425",3,1,1025,6,1,1075
"3426",3,3,1026,6,1,1317
"3427",3,1,1027,6,1,1026
"3428",3,3,1028,6,1,1446
"3429",3,2,1029,6,1,1048
"3430",3,5,1030,6,1,1101
"3431",3,3,1031,6,1,1025
"3432",3,3,1032,6,1,1224
"3433",3,1,1033,6,1,903
"3434",3,5,1034,6,1,855
"3435",3,1,1035,6,1,824
"3436",3,1,1036,6,1,974
"3437",3,2,1037,6,1,1153
"3438",3,1,1038,6,1,1213
"3439",3,1,1039,6,1,1237
"3440",3,4,1040,6,1,1671
"3441",3,2,1041,6,1,1294
"3442",3,4,1042,6,1,1162
"3443",3,4,1043,6,1,1108
"3444",3,1,1044,6,1,1265
"3445",3,1,1045,6,1,941
"3446",3,2,1046,6,1,1116
"3447",3,5,1047,6,1,1109
"3448",3,3,1048,6,1,1263
"3449",3,1,1049,6,1,1042
"3450",3,3,1050,6,1,1013
"3451",3,5,1051,6,1,1128
"3452",3,1,1052,6,1,958
"3453",3,5,1053,6,1,1203
"3454",3,1,1054,6,1,1108
"3455",3,3,1055,6,1,1317
"3456",3,5,1056,6,1,1436
"3457",3,1,1057,6,1,961
"3458",3,3,1058,6,1,1092
"3459",3,4,1059,6,1,1248
"3460",3,5,1060,6,1,2051
"3461",3,1,1061,6,1,1042
"3462",3,3,1062,6,1,1159
"3463",3,4,1063,6,1,1108
"3464",3,5,1064,6,1,1163
"3465",3,2,1065,6,1,1417
"3466",3,5,1066,6,1,943
"3467",3,4,1067,6,1,1123
"3468",3,1,1068,6,1,904
"3469",3,5,1069,6,1,1109
"3470",3,2,1070,6,1,1225
"3471",3,3,1071,6,1,1149
"3472",3,3,1072,6,1,1563
"3473",3,4,1073,6,1,2163
"3474",3,3,1074,6,1,1373
"3475",3,1,1075,6,1,855
"3476",3,2,1076,6,1,1274
"3477",3,1,1077,6,1,1241
"3478",3,1,1078,6,1,937
"3479",3,4,1079,6,1,1473
"3480",3,4,1080,6,1,1517
"3481",3,2,1081,6,1,1201
"3482",3,1,1082,6,1,923
"3483",3,3,1083,6,1,1347
"3484",3,4,1084,6,1,1095
"3485",3,5,1085,6,1,1306
"3486",3,1,1086,6,1,893
"3487",3,2,1087,6,1,1116
"3488",3,3,1088,6,1,1083
"3489",3,1,1089,6,1,1042
"3490",3,1,1090,6,1,1019
"3491",3,2,1091,6,1,1604
"3492",3,2,1092,6,1,1284
"3493",3,3,1093,6,1,1602
"3494",3,1,1094,6,1,991
"3495",3,3,1095,6,1,1259
"3496",3,2,1096,6,1,1393
"3497",3,1,1097,6,1,943
"3498",3,5,1098,6,1,1136
"3499",3,1,1099,6,1,965
"3500",3,2,1100,6,1,1098
"3501",3,4,1101,6,1,1507
"3502",3,2,1102,6,1,929
"3503",3,2,1103,6,1,1217
"3504",3,4,1104,6,1,1382
"3505",3,2,1105,6,1,1472
"3506",3,4,1106,6,1,973
"3507",3,1,1107,6,1,1377
"3508",3,3,1108,6,1,1296
"3509",3,3,1109,6,1,1283
"3510",3,4,1110,6,1,1779
"3511",3,5,1111,6,1,1504
"3512",3,5,1112,6,1,1559
"3513",3,5,1113,6,1,1242
"3514",3,5,1114,6,1,1304
"3515",3,5,1115,6,0,NA
"3516",3,2,1116,6,1,1403
"3517",3,2,1117,6,1,918
"3518",3,1,1118,6,1,1083
"3519",3,2,1119,6,1,1280
"3520",3,2,1120,6,1,1047
"3521",3,2,1121,6,1,1163
"3522",3,1,1122,6,1,937
"3523",3,3,1123,6,1,1473
"3524",3,4,1124,6,1,1279
"3525",3,5,1125,6,1,1313
"3526",3,5,1126,6,1,1356
"3527",3,5,1127,6,1,1313
"3528",3,5,1128,6,1,2575
"3529",3,4,1129,6,1,1344
"3530",3,1,1130,6,1,893
"3531",3,4,1131,6,1,1147
"3532",3,2,1132,6,1,1065
"3533",3,1,1133,6,1,546
"3534",3,5,1134,6,1,1443
"3535",3,5,1135,6,1,1855
"3536",3,3,1136,6,1,1290
"3537",3,2,1137,6,1,1403
"3538",3,4,1138,6,1,1066
"3539",3,1,1139,6,1,1145
"3540",3,4,1140,6,1,931
"3541",3,2,1141,6,1,1025
"3542",3,5,1142,6,1,1217
"3543",3,4,1143,6,1,1382
"3544",3,3,1144,6,1,1780
"3545",3,4,1145,6,1,1028
"3546",3,3,1146,6,1,1563
"3547",3,3,1147,6,1,1025
"3548",3,5,1148,6,1,1171
"3549",3,1,1149,6,1,1201
"3550",3,5,1150,6,1,1226
"3551",3,5,1151,6,1,905
"3552",3,1,1152,6,1,943
"3553",3,2,1153,6,1,1085
"3554",3,3,1154,6,1,1634
"3555",3,5,1155,6,1,1281
"3556",3,5,1156,6,1,1272
"3557",3,1,1157,6,1,903
"3558",3,3,1158,6,1,1474
"3559",3,5,1159,6,1,1752
"3560",3,1,1160,6,1,1181
"3561",3,4,1161,6,1,1108
"3562",3,4,1162,6,1,996
"3563",3,5,1163,6,1,924
"3564",3,4,1164,6,1,1507
"3565",3,2,1165,6,1,1259
"3566",3,1,1166,6,1,1362
"3567",3,1,1167,6,1,926
"3568",3,4,1168,6,1,1059
"3569",3,5,1169,6,1,1136
"3570",3,4,1170,6,1,1279
"3571",3,3,1171,6,1,1322
"3572",3,3,1172,6,1,1300
"3573",3,4,1173,6,1,1912
"3574",3,1,1174,6,1,1751
"3575",3,5,1175,6,1,1136
"3576",3,2,1176,6,1,1233
"3577",3,3,1177,6,1,1175
"3578",3,3,1178,6,1,1098
"3579",3,2,1179,6,1,1294
"3580",3,2,1180,6,1,1025
"3581",3,4,1181,6,1,2735
"3582",3,2,1182,6,1,1062
"3583",3,3,1183,6,1,1955
"3584",3,5,1184,6,1,1225
"3585",3,5,1185,6,1,1247
"3586",3,4,1186,6,1,1306
"3587",3,1,1187,6,1,1083
"3588",3,1,1188,6,1,911
"3589",3,3,1189,6,1,1955
"3590",3,3,1190,6,1,1237
"3591",3,3,1191,6,1,1473
"3592",3,4,1192,6,1,1464
"3593",3,4,1193,6,1,1202
"3594",3,5,1194,6,1,1272
"3595",3,5,1195,6,0,NA
"3596",3,4,1196,6,1,1066
"3597",3,4,1197,6,1,1028
"3598",3,3,1198,6,1,1263
"3599",3,2,1199,6,1,1323
"3600",3,5,1200,7,1,1128
"3601",3,4,1201,7,1,1382
"3602",3,4,1202,7,1,1279
"3603",3,3,1203,7,1,1165
"3604",3,3,1204,7,1,1564
"3605",3,2,1205,7,1,1042
"3606",3,3,1206,7,1,1489
"3607",3,4,1207,7,1,1117
"3608",3,4,1208,7,1,1094
"3609",3,4,1209,7,1,1022
"3610",3,3,1210,7,1,1467
"3611",3,5,1211,7,1,1226
"3612",3,5,1212,7,1,1504
"3613",3,2,1213,7,1,1472
"3614",3,4,1214,7,1,1524
"3615",3,5,1215,7,1,1140
"3616",3,1,1216,7,1,991
"3617",3,1,1217,7,1,915
"3618",3,3,1218,7,1,1780
"3619",3,4,1219,7,1,1606
"3620",3,5,1220,7,1,1855
"3621",3,4,1221,7,1,1342
"3622",3,3,1222,7,1,1498
"3623",3,3,1223,7,1,1263
"3624",3,2,1224,7,1,1481
"3625",3,5,1225,7,1,990
"3626",3,3,1226,7,1,1758
"3627",3,5,1227,7,1,1443
"3628",3,2,1228,7,1,1467
"3629",3,2,1229,7,1,1047
"3630",3,1,1230,7,1,893
"3631",3,2,1231,7,1,1137
"3632",3,2,1232,7,1,929
"3633",3,5,1233,7,1,1356
"3634",3,5,1234,7,1,1224
"3635",3,5,1235,7,1,1583
"3636",3,3,1236,7,1,1489
"3637",3,5,1237,7,1,943
"3638",3,3,1238,7,1,1317
"3639",3,5,1239,7,1,1819
"3640",3,5,1240,7,1,1309
"3641",3,1,1241,7,1,1237
"3642",3,5,1242,7,1,1243
"3643",3,5,1243,7,1,1100
"3644",3,2,1244,7,1,1185
"3645",3,2,1245,7,1,1276
"3646",3,3,1246,7,1,1489
"3647",3,2,1247,7,1,1323
"3648",3,3,1248,7,1,1281
"3649",3,5,1249,7,1,1145
"3650",3,3,1250,7,1,1137
"3651",3,2,1251,7,1,1379
"3652",3,2,1252,7,1,1481
"3653",3,3,1253,7,1,1634
"3654",3,1,1254,7,1,855
"3655",3,2,1255,7,1,2072
"3656",3,3,1256,7,1,1514
"3657",3,1,1257,7,1,1145
"3658",3,3,1258,7,1,1159
"3659",3,1,1259,7,1,1181
"3660",3,4,1260,7,1,1205
"3661",3,4,1261,7,1,1361
"3662",3,2,1262,7,1,1678
"3663",3,3,1263,7,1,1325
"3664",3,5,1264,7,1,1306
"3665",3,3,1265,7,1,1955
"3666",3,4,1266,7,1,1684
"3667",3,4,1267,7,1,1108
"3668",3,1,1268,7,1,1183
"3669",3,1,1269,7,1,1145
"3670",3,4,1270,7,1,1066
"3671",3,2,1271,7,1,1381
"3672",3,2,1272,7,1,1007
"3673",3,3,1273,7,1,1445
"3674",3,1,1274,7,1,974
"3675",3,5,1275,7,1,855
"3676",3,3,1276,7,1,1385
"3677",3,3,1277,7,1,1065
"3678",3,2,1278,7,1,1403
"3679",3,1,1279,7,1,965
"3680",3,2,1280,7,1,1403
"3681",3,4,1281,7,1,1276
"3682",3,5,1282,7,1,1265
"3683",3,2,1283,7,1,1379
"3684",3,2,1284,7,1,1055
"3685",3,2,1285,7,1,1193
"3686",3,2,1286,7,1,1025
"3687",3,4,1287,7,1,1059
"3688",3,5,1288,7,1,1142
"3689",3,5,1289,7,1,1128
"3690",3,5,1290,7,1,1809
"3691",3,1,1291,7,1,1108
"3692",3,1,1292,7,1,976
"3693",3,3,1293,7,1,1137
"3694",3,5,1294,7,1,1304
"3695",3,5,1295,7,1,1163
"3696",3,3,1296,7,1,1602
"3697",3,2,1297,7,1,1274
"3698",3,2,1298,7,1,1055
"3699",3,5,1299,7,1,1180
"3700",3,1,1300,7,1,1094
"3701",3,4,1301,7,1,1694
"3702",3,3,1302,7,1,1563
"3703",3,4,1303,7,1,1205
"3704",3,5,1304,7,1,1180
"3705",3,2,1305,7,1,1184
"3706",3,3,1306,7,1,1513
"3707",3,5,1307,7,1,1309
"3708",3,1,1308,7,1,999
"3709",3,1,1309,7,1,962
"3710",3,2,1310,7,1,1232
"3711",3,5,1311,7,0,NA
"3712",3,3,1312,7,1,1445
"3713",3,1,1313,7,1,953
"3714",3,5,1314,7,1,1171
"3715",3,4,1315,7,1,1464
"3716",3,1,1316,7,1,1334
"3717",3,3,1317,7,1,1178
"3718",3,3,1318,7,1,1513
"3719",3,3,1319,7,1,1013
"3720",3,4,1320,7,1,931
"3721",3,3,1321,7,1,1443
"3722",3,1,1322,7,1,976
"3723",3,4,1323,7,1,2163
"3724",3,3,1324,7,1,1955
"3725",3,1,1325,7,1,1237
"3726",3,1,1326,7,1,1266
"3727",3,5,1327,7,1,1327
"3728",3,4,1328,7,1,931
"3729",3,3,1329,7,1,1456
"3730",3,5,1330,7,1,905
"3731",3,4,1331,7,1,1095
"3732",3,1,1332,7,1,962
"3733",3,3,1333,7,1,1483
"3734",3,1,1334,7,1,1066
"3735",3,5,1335,7,1,1225
"3736",3,5,1336,7,1,855
"3737",3,2,1337,7,1,1393
"3738",3,2,1338,7,1,1529
"3739",3,5,1339,7,1,1272
"3740",3,5,1340,7,1,1304
"3741",3,1,1341,7,1,1087
"3742",3,4,1342,7,1,1328
"3743",3,5,1343,7,1,2051
"3744",3,4,1344,7,1,1405
"3745",3,3,1345,7,1,1323
"3746",3,3,1346,7,1,1311
"3747",3,4,1347,7,1,943
"3748",3,4,1348,7,1,1260
"3749",3,2,1349,7,1,987
"3750",3,4,1350,7,1,1606
"3751",3,1,1351,7,1,961
"3752",3,2,1352,7,1,1140
"3753",3,1,1353,7,1,914
"3754",3,1,1354,7,1,946
"3755",3,5,1355,7,1,905
"3756",3,4,1356,7,1,1247
"3757",3,5,1357,7,1,1264
"3758",3,4,1358,7,1,1342
"3759",3,5,1359,7,1,905
"3760",3,4,1360,7,1,1247
"3761",3,3,1361,7,1,935
"3762",3,3,1362,7,1,1513
"3763",3,1,1363,7,1,1075
"3764",3,2,1364,7,1,1144
"3765",3,5,1365,7,1,990
"3766",3,2,1366,7,1,1008
"3767",3,5,1367,7,1,855
"3768",3,2,1368,7,1,1217
"3769",3,1,1369,7,1,965
"3770",3,4,1370,7,1,1103
"3771",3,2,1371,7,1,1073
"3772",3,5,1372,7,1,1224
"3773",3,4,1373,7,1,1206
"3774",3,4,1374,7,1,1716
"3775",3,1,1375,7,1,953
"3776",3,5,1376,7,1,784
"3777",3,4,1377,7,0,1577
"3778",3,4,1378,7,1,1464
"3779",3,5,1379,7,1,1443
"3780",3,3,1380,7,1,1124
"3781",3,3,1381,7,1,1563
"3782",3,1,1382,7,1,1265
"3783",3,2,1383,7,1,2072
"3784",3,3,1384,7,1,1124
"3785",3,4,1385,7,1,2163
"3786",3,3,1386,7,1,1423
"3787",3,2,1387,7,1,1153
"3788",3,3,1388,7,1,1467
"3789",3,2,1389,7,1,1163
"3790",3,2,1390,7,1,1062
"3791",3,3,1391,7,1,1602
"3792",3,2,1392,7,1,1048
"3793",3,3,1393,7,1,1467
"3794",3,5,1394,7,1,943
"3795",3,2,1395,7,1,1227
"3796",3,4,1396,7,0,NA
"3797",3,3,1397,7,1,1237
"3798",3,5,1398,7,1,1206
"3799",3,3,1399,7,1,1263
"3800",3,5,1400,8,1,1583
"3801",3,2,1401,8,1,1124
"3802",3,2,1402,8,1,1225
"3803",3,4,1403,8,1,1473
"3804",3,1,1404,8,1,1207
"3805",3,4,1405,8,1,973
"3806",3,2,1406,8,1,1025
"3807",3,3,1407,8,1,1066
"3808",3,1,1408,8,1,1751
"3809",3,3,1409,8,1,774
"3810",3,5,1410,8,1,1179
"3811",3,1,1411,8,1,1105
"3812",3,2,1412,8,1,1233
"3813",3,5,1413,8,1,1151
"3814",3,2,1414,8,1,994
"3815",3,5,1415,8,1,1549
"3816",3,2,1416,8,1,1085
"3817",3,5,1417,8,1,1206
"3818",3,5,1418,8,1,1549
"3819",3,3,1419,8,1,1065
"3820",3,4,1420,8,1,1912
"3821",3,1,1421,8,1,786
"3822",3,4,1422,8,1,1778
"3823",3,3,1423,8,1,1325
"3824",3,5,1424,8,1,1203
"3825",3,4,1425,8,1,1912
"3826",3,3,1426,8,1,1443
"3827",3,4,1427,8,1,1406
"3828",3,3,1428,8,1,1514
"3829",3,5,1429,8,1,1145
"3830",3,2,1430,8,1,1276
"3831",3,2,1431,8,1,1062
"3832",3,4,1432,8,1,1028
"3833",3,1,1433,8,1,824
"3834",3,1,1434,8,1,976
"3835",3,5,1435,8,1,1309
"3836",3,1,1436,8,1,1183
"3837",3,3,1437,8,1,1066
"3838",3,4,1438,8,1,1100
"3839",3,4,1439,8,1,1066
"3840",3,5,1440,8,1,1323
"3841",3,5,1441,8,1,465
"3842",3,4,1442,8,1,1303
"3843",3,4,1443,8,1,1140
"3844",3,1,1444,8,1,1241
"3845",3,3,1445,8,1,1098
"3846",3,4,1446,8,1,1473
"3847",3,1,1447,8,1,964
"3848",3,5,1448,8,1,1180
"3849",3,2,1449,8,1,1047
"3850",3,4,1450,8,1,1406
"3851",3,1,1451,8,1,861
"3852",3,5,1452,8,1,1733
"3853",3,2,1453,8,1,1243
"3854",3,1,1454,8,1,941
"3855",3,1,1455,8,1,893
"3856",3,4,1456,8,1,1022
"3857",3,1,1457,8,1,893
"3858",3,3,1458,8,1,1263
"3859",3,5,1459,8,1,1382
"3860",3,3,1460,8,1,1385
"3861",3,2,1461,8,1,1403
"3862",3,3,1462,8,1,1290
"3863",3,2,1463,8,1,1140
"3864",3,5,1464,8,1,1063
"3865",3,1,1465,8,1,964
"3866",3,4,1466,8,1,1276
"3867",3,5,1467,8,1,1181
"3868",3,1,1468,8,1,1265
"3869",3,3,1469,8,1,1175
"3870",3,4,1470,8,1,1117
"3871",3,3,1471,8,1,2175
"3872",3,3,1472,8,1,1186
"3873",3,3,1473,8,1,2175
"3874",3,3,1474,8,1,1044
"3875",3,2,1475,8,1,929
"3876",3,5,1476,8,1,1182
"3877",3,5,1477,8,1,1323
"3878",3,2,1478,8,1,1284
"3879",3,5,1479,8,1,1623
"3880",3,2,1480,8,1,1366
"3881",3,4,1481,8,1,1926
"3882",3,4,1482,8,1,1962
"3883",3,3,1483,8,1,1563
"3884",3,1,1484,8,1,877
"3885",3,2,1485,8,1,1100
"3886",3,4,1486,8,1,1140
"3887",3,3,1487,8,1,1780
"3888",3,3,1488,8,1,1263
"3889",3,5,1489,8,1,1203
"3890",3,3,1490,8,1,1917
"3891",3,5,1491,8,1,1304
"3892",3,2,1492,8,1,1393
"3893",3,3,1493,8,1,1456
"3894",3,3,1494,8,1,1283
"3895",3,5,1495,8,1,1124
"3896",3,4,1496,8,1,2735
"3897",3,4,1497,8,1,1328
"3898",3,3,1498,8,1,1445
"3899",3,2,1499,8,1,1193
"3900",3,5,1500,8,1,784
"3901",3,3,1501,8,1,1698
"3902",3,5,1502,8,1,1285
"3903",3,1,1503,8,1,1362
"3904",3,1,1504,8,1,923
"3905",3,1,1505,8,1,1241
"3906",3,3,1506,8,1,1175
"3907",3,1,1507,8,1,836
"3908",3,4,1508,8,1,1406
"3909",3,1,1509,8,1,1334
"3910",3,4,1510,8,1,1694
"3911",3,1,1511,8,1,961
"3912",3,4,1512,8,1,823
"3913",3,4,1513,8,1,1671
"3914",3,4,1514,8,1,1344
"3915",3,1,1515,8,1,546
"3916",3,2,1516,8,1,1185
"3917",3,4,1517,8,1,1502
"3918",3,3,1518,8,1,1498
"3919",3,2,1519,8,1,1007
"3920",3,3,1520,8,1,1385
"3921",3,5,1521,8,1,1243
"3922",3,4,1522,8,1,1361
"3923",3,3,1523,8,1,1421
"3924",3,2,1524,8,1,1065
"3925",3,2,1525,8,1,1366
"3926",3,3,1526,8,1,1059
"3927",3,5,1527,8,1,1600
"3928",3,2,1528,8,1,1023
"3929",3,2,1529,8,1,1604
"3930",3,1,1530,8,1,947
"3931",3,4,1531,8,1,1344
"3932",3,5,1532,8,1,1093
"3933",3,5,1533,8,1,1733
"3934",3,1,1534,8,1,1108
"3935",3,4,1535,8,1,1778
"3936",3,3,1536,8,1,1311
"3937",3,1,1537,8,1,1029
"3938",3,5,1538,8,1,1281
"3939",3,5,1539,8,1,1217
"3940",3,2,1540,8,1,1074
"3941",3,1,1541,8,1,958
"3942",3,4,1542,8,1,1919
"3943",3,5,1543,8,1,1052
"3944",3,5,1544,8,1,1034
"3945",3,5,1545,8,1,1244
"3946",3,4,1546,8,1,923
"3947",3,2,1547,8,1,1115
"3948",3,3,1548,8,1,1013
"3949",3,1,1549,8,1,893
"3950",3,1,1550,8,1,1087
"3951",3,4,1551,8,1,1140
"3952",3,1,1552,8,1,836
"3953",3,4,1553,8,1,1425
"3954",3,2,1554,8,1,977
"3955",3,5,1555,8,1,1623
"3956",3,3,1556,8,1,1448
"3957",3,2,1557,8,1,1074
"3958",3,1,1558,8,1,824
"3959",3,3,1559,8,1,1098
"3960",3,5,1560,8,1,1309
"3961",3,1,1561,8,1,962
"3962",3,4,1562,8,1,1698
"3963",3,1,1563,8,1,1241
"3964",3,3,1564,8,1,1423
"3965",3,1,1565,8,1,1084
"3966",3,5,1566,8,1,2051
"3967",3,2,1567,8,1,1124
"3968",3,1,1568,8,1,1087
"3969",3,2,1569,8,1,1074
"3970",3,3,1570,8,1,1514
"3971",3,3,1571,8,1,1381
"3972",3,1,1572,8,1,921
"3973",3,4,1573,8,1,1095
"3974",3,3,1574,8,1,1448
"3975",3,3,1575,8,1,1445
"3976",3,5,1576,8,1,1752
"3977",3,4,1577,8,1,1095
"3978",3,4,1578,8,1,1562
"3979",3,4,1579,8,1,1524
"3980",3,5,1580,8,1,1093
"3981",3,5,1581,8,1,1306
"3982",3,1,1582,8,1,1079
"3983",3,1,1583,8,1,846
"3984",3,4,1584,8,1,943
"3985",3,2,1585,8,1,1065
"3986",3,2,1586,8,1,1025
"3987",3,1,1587,8,1,958
"3988",3,3,1588,8,1,1175
"3989",3,4,1589,8,1,1562
"3990",3,4,1590,8,1,1377
"3991",3,2,1591,8,1,1234
"3992",3,1,1592,8,1,836
"3993",3,4,1593,8,1,1671
"3994",3,5,1594,8,1,1233
"3995",3,3,1595,8,1,1758
"3996",3,4,1596,8,1,1283
"3997",3,3,1597,8,1,1373
"3998",3,5,1598,8,1,1583
"3999",3,2,1599,8,1,1529
"4000",3,3,1600,9,1,564
"4001",3,5,1601,9,1,1518
"4002",3,1,1602,9,1,1155
"4003",3,4,1603,9,1,1260
"4004",3,1,1604,9,1,953
"4005",3,1,1605,9,1,904
"4006",3,3,1606,9,1,1443
"4007",3,4,1607,9,1,1283
"4008",3,5,1608,9,1,1382
"4009",3,1,1609,9,1,1121
"4010",3,4,1610,9,1,1962
"4011",3,5,1611,9,1,1171
"4012",3,1,1612,9,1,1023
"4013",3,3,1613,9,1,1456
"4014",3,3,1614,9,1,1296
"4015",3,1,1615,9,1,1394
"4016",3,1,1616,9,1,1042
"4017",3,1,1617,9,1,962
"4018",3,1,1618,9,1,1274
"4019",3,4,1619,9,1,943
"4020",3,1,1620,9,1,1019
"4021",3,5,1621,9,1,2575
"4022",3,3,1622,9,1,1294
"4023",3,5,1623,9,1,1243
"4024",3,5,1624,9,1,1282
"4025",3,2,1625,9,1,918
"4026",3,4,1626,9,1,2142
"4027",3,4,1627,9,1,823
"4028",3,4,1628,9,1,1247
"4029",3,3,1629,9,1,1593
"4030",3,2,1630,9,1,2072
"4031",3,4,1631,9,1,1094
"4032",3,2,1632,9,1,925
"4033",3,1,1633,9,1,1274
"4034",3,1,1634,9,1,919
"4035",3,3,1635,9,1,1083
"4036",3,4,1636,9,0,NA
"4037",3,4,1637,9,1,2399
"4038",3,1,1638,9,1,946
"4039",3,4,1639,9,1,1264
"4040",3,5,1640,9,1,1559
"4041",3,5,1641,9,1,1855
"4042",3,2,1642,9,1,1100
"4043",3,4,1643,9,1,1502
"4044",3,2,1644,9,1,1439
"4045",3,3,1645,9,1,1059
"4046",3,4,1646,9,1,1779
"4047",3,2,1647,9,1,1144
"4048",3,4,1648,9,1,1059
"4049",3,5,1649,9,1,1151
"4050",3,5,1650,9,1,1616
"4051",3,1,1651,9,1,894
"4052",3,4,1652,9,1,1377
"4053",3,3,1653,9,1,1628
"4054",3,3,1654,9,1,1513
"4055",3,5,1655,9,1,1600
"4056",3,3,1656,9,1,1285
"4057",3,4,1657,9,1,1147
"4058",3,2,1658,9,1,1073
"4059",3,4,1659,9,1,1694
"4060",3,2,1660,9,1,1047
"4061",3,3,1661,9,1,1423
"4062",3,3,1662,9,1,1296
"4063",3,2,1663,9,1,1225
"4064",3,1,1664,9,1,786
"4065",3,4,1665,9,1,973
"4066",3,4,1666,9,1,1123
"4067",3,5,1667,9,1,1265
"4068",3,2,1668,9,1,925
"4069",3,1,1669,9,1,1064
"4070",3,2,1670,9,1,1232
"4071",3,1,1671,9,1,1183
"4072",3,3,1672,9,1,1263
"4073",3,3,1673,9,1,1323
"4074",3,2,1674,9,1,977
"4075",3,2,1675,9,1,1065
"4076",3,2,1676,9,1,1062
"4077",3,5,1677,9,1,1399
"4078",3,5,1678,9,1,1518
"4079",3,5,1679,9,1,1180
"4080",3,5,1680,9,1,784
"4081",3,3,1681,9,1,1602
"4082",3,1,1682,9,1,965
"4083",3,1,1683,9,1,919
"4084",3,5,1684,9,1,1327
"4085",3,5,1685,9,1,1063
"4086",3,3,1686,9,1,1025
"4087",3,3,1687,9,1,1473
"4088",3,3,1688,9,1,1385
"4089",3,3,1689,9,1,1243
"4090",3,5,1690,9,1,1281
"4091",3,2,1691,9,1,925
"4092",3,1,1692,9,1,1183
"4093",3,5,1693,9,1,1128
"4094",3,4,1694,9,1,2142
"4095",3,3,1695,9,1,1325
"4096",3,1,1696,9,1,1094
"4097",3,2,1697,9,1,1417
"4098",3,5,1698,9,1,1244
"4099",3,1,1699,9,1,1108
"4100",3,2,1700,9,1,987
"4101",3,4,1701,9,1,2128
"4102",3,3,1702,9,1,1065
"4103",3,1,1703,9,1,786
"4104",3,5,1704,9,1,1281
"4105",3,1,1705,9,1,1334
"4106",3,2,1706,9,1,1233
"4107",3,1,1707,9,1,1121
"4108",3,3,1708,9,1,1628
"4109",3,1,1709,9,1,946
"4110",3,4,1710,9,1,1205
"4111",3,5,1711,9,1,1124
"4112",3,4,1712,9,1,1361
"4113",3,2,1713,9,1,1529
"4114",3,4,1714,9,1,923
"4115",3,3,1715,9,1,1124
"4116",3,2,1716,9,1,779
"4117",3,1,1717,9,1,911
"4118",3,3,1718,9,1,1443
"4119",3,5,1719,9,1,784
"4120",3,2,1720,9,1,1366
"4121",3,4,1721,9,1,1926
"4122",3,3,1722,9,1,1446
"4123",3,3,1723,9,1,1443
"4124",3,3,1724,9,1,1564
"4125",3,4,1725,9,1,1206
"4126",3,2,1726,9,1,779
"4127",3,2,1727,9,1,1403
"4128",3,4,1728,9,1,1094
"4129",3,4,1729,9,1,1694
"4130",3,5,1730,9,1,1809
"4131",3,3,1731,9,1,1259
"4132",3,4,1732,9,1,1716
"4133",3,5,1733,9,1,1356
"4134",3,5,1734,9,1,1247
"4135",3,1,1735,9,1,926
"4136",3,2,1736,9,1,1381
"4137",3,4,1737,9,1,1059
"4138",3,2,1738,9,1,1358
"4139",3,3,1739,9,1,1513
"4140",3,5,1740,9,1,1559
"4141",3,2,1741,9,1,1181
"4142",3,3,1742,9,1,1263
"4143",3,1,1743,9,1,926
"4144",3,2,1744,9,1,1023
"4145",3,3,1745,9,1,1373
"4146",3,5,1746,9,1,1151
"4147",3,3,1747,9,1,1263
"4148",3,3,1748,9,1,1300
"4149",3,3,1749,9,1,1473
"4150",3,4,1750,9,1,1382
"4151",3,2,1751,9,1,1302
"4152",3,2,1752,9,1,908
"4153",3,4,1753,9,1,1100
"4154",3,1,1754,9,1,1108
"4155",3,2,1755,9,1,1417
"4156",3,2,1756,9,1,1259
"4157",3,2,1757,9,1,1678
"4158",3,1,1758,9,1,946
"4159",3,4,1759,9,1,1577
"4160",3,1,1760,9,1,1243
"4161",3,4,1761,9,1,1671
"4162",3,2,1762,9,1,1025
"4163",3,1,1763,9,1,948
"4164",3,5,1764,9,1,1243
"4165",3,4,1765,9,1,1698
"4166",3,4,1766,9,1,1716
"4167",3,1,1767,9,1,1121
"4168",3,1,1768,9,1,1066
